parent_document_id,document_id,HaveSeenImages,accumulated_accuracy,all_accumulated_accuracy,anRepeatedItem,browser,browser_version,codeversion,condition,correct,correct_appear1,correct_appear2,correct_response,correct_response_key,current_assignmentTypesWithinList,designversion,failed_audio,failed_images,failed_video,fullscreen,height,id,id_picName,internal_node_id,is_changedfullscreen,is_chosenFinal,is_currentObjAppear1,is_finished,is_old,is_studied_appear0_initial,is_studied_appear1_initial,is_studied_appear2_initial,is_tested_appear0_initial,is_tested_appear1_initial,is_tested_appear2_initial,listNum_appear0_initial,listNum_appear1_initial,listNum_appear2_initial,listNum_infinalOrder,listNum_pickedFrom,microphone,mobile,num_CurrObjAppear,os,presPos_digit,question_order,recognition_correct,response,responsesum,rt,session_id,stimulus,stimulusConditionName_nPlusOneTrial,stimulusConditions,stimulus_id,studyPos_appear0_initial,studyPos_appear1_initial,studyPos_appear2_initial,study_id,subject_id,success,sum_currList,task,testPos_appear0_initial,testPos_appear1_initial,testPos_appear2_initial,testPos_final,time_elapsed,timeout,timepassed_mins,trial_index,trial_type,type_code_studiedCurr,type_code_testiedCurr,type_code_testiedNext,type_comment,vsync_rate,webaudio,webcam,width
100896,04hHCeEuuvY6VgcKFQPx,No,0,0,False,,,2,r,False,False,,,j,T_target,3,,,,,1728,100896,1 (1895).jpg,0.0-6.0-10.0-0.27,0,True,True,3,False,True,True,False,True,True,False,2,2,False,,0,,,1,,,,0,,,,,images/1 (1895).jpg,B,B,,21,21,0,,100896,,,initialTest_response,28,28,0,277,10698,,0.18,154,image-keyboard-response,1,1,0,"current target, not in next trial",,,,2562
100896,0KwAakanpPTLGHeggZig,No,,0,False,,,2,r,,,,,,T_nontarget,3,,,,,1728,100896,1 (889).jpg,0.0-6.0-2.0-0.21,0,True,True,3,,True,True,False,False,False,False,2,2,0,8,0,,,1,,,,,,,,,images/1 (889).jpg,A,A,,22,22,0,,100896,,,initial_study,0,0,0,390,9805,,0.17,104,image-keyboard-response,1,0,0,"studied only, not in trial",,,,2562
100896,0Sg6VIgPcLNQ17as0DPu,No,,0,True,,,2,r,,,,,,T_nontarget,3,,,,,1728,100896,1 (1090).jpg,0.0-8.0-2.0-0.21,0,False,True,3,,True,True,False,False,False,True,4,4,5,,0,,,1,,,,,,,,,images/1 (1090).jpg,Cn+1,Cn,,22,22,0,,100896,,,initial_study,0,0,11,0,12240,,0.21,256,image-keyboard-response,1,0,1,"studied only, in next trial",,,,2562
100896,0XsVu5tzzxl7ghBYiXml,No,0,0,False,,,2,r,False,False,,,j,T_target,3,,,,,1728,100896,1 (878).jpg,0.0-5.0-10.0-0.26,0,False,True,3,False,True,True,False,True,True,False,1,1,False,,0,,,1,,,,0,,,,,images/1 (878).jpg,B,B,,1,1,0,,100896,,,initialTest_response,27,27,0,0,9442,,0.16,77,image-keyboard-response,1,1,0,"current target, not in next trial",,,,2562
100896,0qsHbPWotJGxm7A1yzbB,No,,0,,,,2,r,,,,,,,3,,,,,1728,100896,,0.0-7.0-8.0-0.0,0,,,3,,,,,,,,,,,,,,,,,,,,,,,,Now judge if you have seen this pictures from the list you JUST studied before the digits,,,,,,,,100896,,,prompt,,,,,11283,,0.19,201,html-keyboard-response,,,,,,,,2562
100896,17zVyPkZzFfDfwFGyl1N,No,,0,False,,,2,r,,,,,,T_target,3,,,,,1728,100896,1 (1426).jpg,0.0-6.0-2.0-0.16,0,True,True,3,,True,True,False,True,True,False,2,2,0,6,0,,,1,,,,,,,,,images/1 (1426).jpg,B,B,,17,17,0,,100896,,,initial_study,16,16,0,269,9747,,0.17,99,image-keyboard-response,1,1,0,"current target, not in next trial",,,,2562
100896,1EDqAbgXp05aA95Qhia4,No,,0,,,,2,r,,,,,,,3,,,,,1728,100896,,0.0-5.0-5.0-0.3,0,,,3,,,,,,,,1,,,,,,,,,4,,,,,,,4,,,4,,,,,100896,,49,digitPresentation,,,,,8757,,0.15,42,html-keyboard-response,,,,,,,,2562
100896,1Yu0sxcskTS8NlksEYjz,No,,0,False,,,2,r,,,,,,T_target,3,,,,,1728,100896,1 (1915).jpg,0.0-7.0-2.0-0.13,0,False,True,3,,True,True,False,True,True,False,3,3,0,,0,,,1,,,,,,,,,images/1 (1915).jpg,B,B,,14,14,0,,100896,,,initial_study,30,30,0,0,10941,,0.19,172,image-keyboard-response,1,1,0,"current target, not in next trial",,,,2562
100896,1j0OJbns2MkGX3nfpMtZ,No,,0,,,,2,r,,,,,,,3,,,,,1728,100896,,0.0-7.0-5.0-0.3,0,,,3,,,,,,,,3,,,,,,,,,4,,,,,,,5,,,5,,,,,100896,,57,digitPresentation,,,,,11202,,0.19,194,html-keyboard-response,,,,,,,,2562
100896,1ybw1ZbjEa7QfRlRUMIz,No,0,0,False,,,2,r,False,False,,,f,T_foil,3,,,,,1728,100896,1 (153).jpg,0.0-7.0-10.0-0.1,0,True,True,3,False,False,False,False,True,True,False,3,3,False,2,0,,,1,,,,0,,,,,images/1 (153).jpg,Fn+1,Fn,,0,0,0,,100896,,,initialTest_response,2,2,0,103,11329,,0.19,204,image-keyboard-response,0,1,0,"tested only, not in next trial",,,,2562
100896,25HbEsv6X7Jb59Q0J28X,No,,0,False,,,2,r,,,,,,T_target,3,,,,,1728,100896,1 (1106).jpg,0.0-9.0-2.0-0.28,0,False,True,3,,True,True,False,True,True,False,5,5,0,,0,,,1,,,,,,,,,images/1 (1106).jpg,B,B,,29,29,0,,100896,,,initial_study,30,30,0,0,13546,,0.23,339,image-keyboard-response,1,1,0,"current target, not in next trial",,,,2562
100896,2WXcNZjWeHVMBYc0y9ls,No,,0,False,,,2,r,,,,,,T_target,3,,,,,1728,100896,1 (1748).jpg,0.0-9.0-2.0-0.13,0,True,True,3,,True,True,False,True,True,False,5,5,0,3,0,,,1,,,,,,,,,images/1 (1748).jpg,B,B,,14,14,0,,100896,,,initial_study,13,13,0,133,13358,,0.23,324,image-keyboard-response,1,1,0,"current target, not in next trial",,,,2562
100896,2cKuUoVgfbKueJ2doIhT,No,0,0,False,,,2,r,False,False,,,f,T_foil,3,,,,,1728,100896,1 (1320).jpg,0.0-5.0-10.0-0.27,0,True,True,3,False,False,False,False,True,True,False,1,1,False,1,0,,,1,,,,0,,,,,images/1 (1320).jpg,Fn+1,Fn,,0,0,0,,100896,,,initialTest_response,28,28,0,19,9464,,0.16,78,image-keyboard-response,0,1,0,"tested only, not in next trial",,,,2562
100896,2fGlVHkfuGvtvRFEyVqv,No,,0,,,,2,r,,,,,,,3,,,,,1728,100896,,0.0-6.0-5.0-0.7,0,,,3,,,,,,,,2,,,,,,,,,8,,,,,,,4,,,4,,,,,100896,,52,digitPresentation,,,,,10017,,0.17,122,html-keyboard-response,,,,,,,,2562
100896,2i8EvirAD6FhAB5tO1fE,No,,0,False,,,2,r,,,,,,T_target,3,,,,,1728,100896,1 (1115).jpg,0.0-7.0-2.0-0.26,0,True,True,3,,True,True,False,True,True,False,3,3,0,10,0,,,1,,,,,,,,,images/1 (1115).jpg,B,B,,27,27,0,,100896,,,initial_study,20,20,0,448,11094,,0.19,185,image-keyboard-response,1,1,0,"current target, not in next trial",,,,2562
100896,2xm1lI6qakV8h9BSIzmT,No,,0,,,,2,r,,,,,,,3,,,,,1728,100896,,0.0-8.0-5.0-0.1,0,,,3,,,,,,,,4,,,,,,,,,2,,,,,,,5,,,5,,,,,100896,,57,digitPresentation,,,,,12376,,0.21,268,html-keyboard-response,,,,,,,,2562
100896,3CQAeLs8vNy8vEYUoNWi,No,,0,,,,2,r,,,,,,,3,,,,,1728,100896,,0.0-5.0-1.0-0.0,0,,,3,,,,,,,,,,,,,,,,,,,,,,,,"<div style=""font-size:60px;"">+</div>",,,,,,,,100896,,,fixation,,,,,8346,,0.14,6,html-keyboard-response,,,,,,,,2562
100896,3KX0zZiJ4lEKi4yjFszZ,No,0,0,False,,,2,r,False,False,,,j,T_target,3,,,,,1728,100896,1 (1426).jpg,0.0-6.0-10.0-0.15,0,True,True,3,False,True,True,False,True,True,False,2,2,False,,0,,,1,,,,0,,,,,images/1 (1426).jpg,B,B,,17,17,0,,100896,,,initialTest_response,16,16,0,269,10426,,0.18,142,image-keyboard-response,1,1,0,"current target, not in next trial",,,,2562
100896,3QdaCHizvbrrNiGU8jF8,No,,0,False,,,2,r,,,,,,T_nontarget,3,,,,,1728,100896,1 (2290).jpg,0.0-8.0-2.0-0.26,0,False,True,3,,True,True,False,False,False,False,4,4,0,,0,,,1,,,,,,,,,images/1 (2290).jpg,A,A,,27,27,0,,100896,,,initial_study,0,0,0,0,12299,,0.21,261,image-keyboard-response,1,0,0,"studied only, not in trial",,,,2562
100896,3SJ8sn5tjUOGb3gU7NAo,No,0,0,False,,,2,r,False,False,,,j,T_target,3,,,,,1728,100896,1 (574).jpg,0.0-5.0-10.0-0.25,0,True,True,3,False,True,True,False,True,True,False,1,1,False,,0,,,1,,,,0,,,,,images/1 (574).jpg,B,B,,14,14,0,,100896,,,initialTest_response,26,26,0,98,9420,,0.16,76,image-keyboard-response,1,1,0,"current target, not in next trial",,,,2562
100896,3Z3E5jUsF62seIxeuAWU,No,,0,,,,2,r,,,,,,,3,,,,,1728,100896,,0.0-8.0-8.0-0.0,0,,,3,,,,,,,,,,,,,,,,,,,,,,,,Now judge if you have seen this pictures from the list you JUST studied before the digits,,,,,,,,100896,,,prompt,,,,,12478,,0.21,277,html-keyboard-response,,,,,,,,2562
100896,3ihxMq06FXUdx790K57d,No,,0,True,,,2,r,,,,,,T_target,3,,,,,1728,100896,1 (2312).jpg,0.0-7.0-2.0-0.7,0,True,True,3,,True,True,False,True,True,True,3,3,4,2,0,,,1,,,,,,,,,images/1 (2312).jpg,Dn+1,Dn,,8,8,0,,100896,,,initial_study,25,25,19,102,10872,,0.19,166,image-keyboard-response,1,1,1,"current target, in next trial",,,,2562
100896,3jYML8ysj10map502may,No,,0,False,,,2,r,,,,,,T_nontarget,3,,,,,1728,100896,1 (1028).jpg,0.0-5.0-2.0-0.17,0,False,True,3,,True,True,False,False,False,False,1,1,0,,0,,,1,,,,,,,,,images/1 (1028).jpg,A,A,,18,18,0,,100896,,,initial_study,0,0,0,0,8553,,0.15,24,image-keyboard-response,1,0,0,"studied only, not in trial",,,,2562
100896,3n1hFWpQLQY84ze2o9iM,No,,0,False,,,2,r,,,,,,T_nontarget,3,,,,,1728,100896,1 (1364).jpg,0.0-9.0-2.0-0.29,0,True,True,3,,True,True,False,False,False,False,5,5,0,7,0,,,1,,,,,,,,,images/1 (1364).jpg,A,A,,30,30,0,,100896,,,initial_study,0,0,0,336,13558,,0.23,340,image-keyboard-response,1,0,0,"studied only, not in trial",,,,2562
100896,3nwFwX7rASq6NSgi3m2y,No,0,0,False,,,2,r,False,False,,,f,T_foil,3,,,,,1728,100896,1 (1021).jpg,0.0-5.0-10.0-0.0,0,False,True,3,False,False,False,False,True,True,False,1,1,False,,0,,,1,,,,0,,,,,images/1 (1021).jpg,Fn+1,Fn,,0,0,0,,100896,,,initialTest_response,1,1,0,0,8859,,0.15,51,image-keyboard-response,0,1,0,"tested only, not in next trial",,,,2562
100896,3tZ5stHlk50KGDwuQCPR,No,,0,,,,2,r,,,,,,,3,,,,,1728,100896,,0.0-8.0-5.0-0.3,0,,,3,,,,,,,,4,,,,,,,,,4,,,,,,,6,,,6,,,,,100896,,57,digitPresentation,,,,,12398,,0.21,270,html-keyboard-response,,,,,,,,2562
100896,3xi4e3CH9Jkcw9Rpj18H,No,,0,,,,2,r,,,,,,,3,,,,,1728,100896,,0.0-9.0-0.0-0.0,0,,,3,,,,,,,,,,,,,,,,,,,,,,,,"
    <p style='text-align: justify;color: black;background: white;font: caption-;''>
        Press the 'enter' key to see the next list of pictures. </p>
    ",,,,,,,,100896,,,,,,,,13178,,0.23,309,html-keyboard-response,,,,,,,,2562
100896,48SNxYCOgxNCh2LRZ6Kb,No,,0,,,,2,r,,,,,,,3,,,,,1728,100896,,0.0-9.0-4.0-0.0,0,,,3,,,,,,,,,,,,,,,,,,,,,,,,"<div style=""font-size:60px;"">+</div>",,,,,,,,100896,,,fixation,,,,,13581,,0.23,342,html-keyboard-response,,,,,,,,2562
100896,48pKUsT9Qs6kVqZULs3x,No,0,0,True,,,2,r,False,False,False,,j,T_target,3,,,,,1728,100896,1 (2355).jpg,0.0-6.0-10.0-0.17,0,True,True,3,False,True,True,False,True,True,True,2,2,3,,0,,,1,,,,0,,,,,images/1 (2355).jpg,Dn+1,Dn,,26,26,0,,100896,,,initialTest_response,18,18,18,202,10471,,0.18,144,image-keyboard-response,1,1,1,"current target, in next trial",,,,2562
100896,4Q7d1eaPQfZfCMaOKemu,No,,0,True,,,2,r,,,,,,T_nontarget,3,,,,,1728,100896,1 (865).jpg,0.0-9.0-2.0-0.16,0,True,True,3,,True,True,False,False,False,True,5,5,6,8,0,,,1,,,,,,,,,images/1 (865).jpg,Cn+1,Cn,,17,17,0,,100896,,,initial_study,0,0,29,377,13391,,0.23,327,image-keyboard-response,1,0,1,"studied only, in next trial",,,,2562
100896,4RWZkViiZz18cSK5VE12,No,,0,False,,,2,r,,,,,,T_target,3,,,,,1728,100896,1 (2369).jpg,0.0-6.0-2.0-0.11,0,False,True,3,,True,True,False,True,True,False,2,2,0,,0,,,1,,,,,,,,,images/1 (2369).jpg,B,B,,12,12,0,,100896,,,initial_study,23,23,0,0,9688,,0.17,94,image-keyboard-response,1,1,0,"current target, not in next trial",,,,2562
100896,4vZTzWbp9hc0rNhKcHe0,No,,0,,,,2,r,,,,,,,3,,,,,1728,100896,,0.0-5.0-5.0-0.7,0,,,3,,,,,,,,1,,,,,,,,,8,,,,,,,6,,,6,,,,,100896,,49,digitPresentation,,,,,8801,,0.15,46,html-keyboard-response,,,,,,,,2562
100896,5I9jEnkWNtJGmZNZXo16,No,,0,False,,,2,r,,,,,,T_nontarget,3,,,,,1728,100896,1 (1584).jpg,0.0-9.0-2.0-0.17,0,False,True,3,,True,True,False,False,False,False,5,5,0,,0,,,1,,,,,,,,,images/1 (1584).jpg,A,A,,18,18,0,,100896,,,initial_study,0,0,0,0,13402,,0.23,328,image-keyboard-response,1,0,0,"studied only, not in trial",,,,2562
100896,5R7FTotYvVibWB6Ih7LF,No,,0,True,,,2,r,,,,,,T_nontarget,3,,,,,1728,100896,1 (1435).jpg,0.0-5.0-2.0-0.15,0,True,True,3,,True,True,False,False,False,True,1,1,2,6,0,,,1,,,,,,,,,images/1 (1435).jpg,Cn+1,Cn,,16,16,0,,100896,,,initial_study,0,0,13,292,8530,,0.15,22,image-keyboard-response,1,0,1,"studied only, in next trial",,,,2562
100896,5ULAOnTzM7fevi6OZBOR,No,,0,,,,2,r,,,,,,,3,,,,,1728,100896,,0.0-6.0-5.0-0.2,0,,,3,,,,,,,,2,,,,,,,,,3,,,,,,,7,,,7,,,,,100896,,52,digitPresentation,,,,,9960,,0.17,117,html-keyboard-response,,,,,,,,2562
100896,5btymLUvzDLsZrTbXBc6,No,,0,False,,,2,r,,,,,,T_nontarget,3,,,,,1728,100896,1 (1490).jpg,0.0-7.0-2.0-0.16,0,False,True,3,,True,True,False,False,False,False,3,3,0,,0,,,1,,,,,,,,,images/1 (1490).jpg,A,A,,17,17,0,,100896,,,initial_study,0,0,0,0,10976,,0.19,175,image-keyboard-response,1,0,0,"studied only, not in trial",,,,2562
100896,5z8N8VE3guY8JxNFmscA,No,0,0,False,,,2,r,False,False,,,f,T_foil,3,,,,,1728,100896,1 (2200).jpg,0.0-5.0-10.0-0.16,0,True,True,3,False,False,False,False,True,True,False,1,1,False,3,0,,,1,,,,0,,,,,images/1 (2200).jpg,Fn+1,Fn,,0,0,0,,100896,,,initialTest_response,17,17,0,115,9223,,0.16,67,image-keyboard-response,0,1,0,"tested only, not in next trial",,,,2562
100896,62eRraPRp0KHs4fIZbrR,No,,0,,,,2,r,,,,,,,3,,,,,1728,100896,,0.0-4.0,0,,,3,,,,,,,,,,,,,,,,,,,,,,769,,,,,,,,,,100896,True,,,,,,,8263,,0.14,4,fullscreen,,,,,,,,2562
100896,66w4RUoJKhN113ia12Wx,No,,0,False,,,2,r,,,,,,T_target,3,,,,,1728,100896,1 (403).jpg,0.0-8.0-2.0-0.24,0,True,True,3,,True,True,False,True,True,False,4,4,0,10,0,,,1,,,,,,,,,images/1 (403).jpg,B,B,,25,25,0,,100896,,,initial_study,29,29,0,454,12274,,0.21,259,image-keyboard-response,1,1,0,"current target, not in next trial",,,,2562
100896,6F4VZpFJr8khplS6ZN5w,No,0,0,False,,,2,r,False,False,,,j,T_target,3,,,,,1728,100896,1 (1989).jpg,0.0-5.0-10.0-0.20,0,False,True,3,False,True,True,False,True,True,False,1,1,False,,0,,,1,,,,0,,,,,images/1 (1989).jpg,B,B,,25,25,0,,100896,,,initialTest_response,21,21,0,0,9310,,0.16,71,image-keyboard-response,1,1,0,"current target, not in next trial",,,,2562
100896,6GXyOIxU5VTaWaqJVirq,No,,0,False,,,2,r,,,,,,T_nontarget,3,,,,,1728,100896,1 (101).jpg,0.0-7.0-2.0-0.28,0,True,True,3,,True,True,False,False,False,False,3,3,0,8,0,,,1,,,,,,,,,images/1 (101).jpg,A,A,,29,29,0,,100896,,,initial_study,0,0,0,353,11118,,0.19,187,image-keyboard-response,1,0,0,"studied only, not in trial",,,,2562
100896,6LQHpdFb6xs1pWpXMlVE,No,,0,False,,,2,r,,,,,,T_target,3,,,,,1728,100896,1 (653).jpg,0.0-8.0-2.0-0.8,0,False,True,3,,True,True,False,True,True,False,4,4,0,,0,,,1,,,,,,,,,images/1 (653).jpg,B,B,,9,9,0,,100896,,,initial_study,7,7,0,0,12090,,0.21,243,image-keyboard-response,1,1,0,"current target, not in next trial",,,,2562
100896,6NVXlIbOK5jSGAr8o1sB,No,0,0,True,,,2,r,False,False,False,,f,T_foil,3,,,,,1728,100896,1 (754).jpg,0.0-7.0-10.0-0.3,0,False,False,3,False,False,False,False,True,False,True,3,2,3,,0,,,2,,,,0,,,,,images/1 (754).jpg,Fnn,Fnn,,0,0,0,,100896,,,initialTest_response,4,0,4,0,11373,,0.19,206,image-keyboard-response,0,1,1,"tested only, in next trial, from last trial",,,,2562
100896,6QcJZlLazBQXwxk3FLy2,No,0,0,True,,,2,r,False,False,False,,f,T_foil,3,,,,,1728,100896,1 (221).jpg,0.0-6.0-10.0-0.24,0,True,False,3,False,False,True,False,True,True,True,2,1,2,,0,,,2,,,,0,,,,,images/1 (221).jpg,Dn,Dn,,0,7,0,,100896,,,initialTest_response,25,7,25,150,10632,,0.18,151,image-keyboard-response,1,1,1,"current target, in next trial, from last trial",,,,2562
100896,6QeJVcYqcAYwwbMMYcdh,No,,0,False,,,2,r,,,,,,T_nontarget,3,,,,,1728,100896,1 (209).jpg,0.0-5.0-2.0-0.28,0,True,True,3,,True,True,False,False,False,False,1,1,0,10,0,,,1,,,,,,,,,images/1 (209).jpg,A,A,,29,29,0,,100896,,,initial_study,0,0,0,472,8678,,0.15,35,image-keyboard-response,1,0,0,"studied only, not in trial",,,,2562
100896,6UfgtRZULSaUEwP7ezoH,No,0,0,True,,,2,r,False,False,False,,f,T_foil,3,,,,,1728,100896,1 (1794).jpg,0.0-5.0-10.0-0.14,0,True,True,3,False,False,False,False,True,True,True,1,1,2,8,0,,,1,,,,0,,,,,images/1 (1794).jpg,Fnn+1,Fnn,,0,0,0,,100896,,,initialTest_response,15,15,6,357,9179,,0.16,65,image-keyboard-response,0,1,1,"tested only, in next trial",,,,2562
100896,6dylHUzQQwJaiXNUnGJL,No,0,0,True,,,2,r,False,,False,,f,T_foil,3,,,,,1728,100896,1 (234).jpg,0.0-6.0-10.0-0.0,0,False,False,3,False,False,True,False,True,False,True,2,1,2,,0,,,2,,,,0,,,,,images/1 (234).jpg,Cn,Cn,,0,24,0,,100896,,,initialTest_response,1,0,1,0,10077,,0.17,127,image-keyboard-response,1,0,1,"studied only, in next trial, from last trial",,,,2562
100896,6i92ZsqyELNPUOU02Pk8,No,,0,True,,,2,r,,,,,,T_target,3,,,,,1728,100896,1 (360).jpg,0.0-5.0-2.0-0.8,0,False,True,3,,True,True,False,True,True,True,1,1,2,,0,,,1,,,,,,,,,images/1 (360).jpg,Dn+1,Dn,,9,9,0,,100896,,,initial_study,2,2,27,0,8447,,0.15,15,image-keyboard-response,1,1,1,"current target, in next trial",,,,2562
100896,74RJVVZ68tFoRaXmYYO0,No,,0,False,,,2,r,,,,,,T_nontarget,3,,,,,1728,100896,1 (960).jpg,0.0-8.0-2.0-0.3,0,False,True,3,,True,True,False,False,False,False,4,4,0,,0,,,1,,,,,,,,,images/1 (960).jpg,A,A,,4,4,0,,100896,,,initial_study,0,0,0,0,12031,,0.21,238,image-keyboard-response,1,0,0,"studied only, not in trial",,,,2562
100896,7CpbBz0HU4fjjz6hWETO,No,,0,False,,,2,r,,,,,,T_target,3,,,,,1728,100896,1 (1251).jpg,0.0-8.0-2.0-0.12,0,True,True,3,,True,True,False,True,True,False,4,4,0,3,0,,,1,,,,,,,,,images/1 (1251).jpg,B,B,,13,13,0,,100896,,,initial_study,5,5,0,121,12137,,0.21,247,image-keyboard-response,1,1,0,"current target, not in next trial",,,,2562
100896,7EySGbKnusKC8zFwz17m,No,,0,,,,2,r,,,,,,,3,,,,,1728,100896,,0.0-9.0-3.0-0.0,0,,,3,,,,,,,,,,,,,,,,,,,,,,,,Summing up the digits as they appear,,,,,,,,100896,,,prompt,,,,,13570,,0.23,341,html-keyboard-response,,,,,,,,2562
100896,7F5drvR9wuLu2G2Asbqp,No,,0,True,,,2,r,,,,,,T_nontarget,3,,,,,1728,100896,1 (234).jpg,0.0-5.0-2.0-0.23,0,False,True,3,,True,True,False,False,False,True,1,1,2,,0,,,1,,,,,,,,,images/1 (234).jpg,Cn+1,Cn,,24,24,0,,100896,,,initial_study,0,0,1,0,8623,,0.15,30,image-keyboard-response,1,0,1,"studied only, in next trial",,,,2562
100896,7GZnFzvc7oBooGfyn3Lh,No,0,0,False,,,2,r,False,False,,,j,T_target,3,,,,,1728,100896,1 (127).jpg,0.0-6.0-10.0-0.11,0,True,True,3,False,True,True,False,True,True,False,2,2,False,,0,,,1,,,,0,,,,,images/1 (127).jpg,B,B,,23,23,0,,100896,,,initialTest_response,12,12,0,226,10330,,0.18,138,image-keyboard-response,1,1,0,"current target, not in next trial",,,,2562
100896,7XudoAppKTZjaTbpGac3,No,0,0,False,,,2,r,False,False,,,j,T_target,3,,,,,1728,100896,1 (1980).jpg,0.0-7.0-10.0-0.28,0,True,True,3,False,True,True,False,True,True,False,3,3,False,,0,,,1,,,,0,,,,,images/1 (1980).jpg,B,B,,15,15,0,,100896,,,initialTest_response,29,29,0,96,11928,,0.20,231,image-keyboard-response,1,1,0,"current target, not in next trial",,,,2562
100896,7x8V1EvRopUe7mobUE1V,No,,0,,,,2,r,,,,,,,3,,,,,1728,100896,,0.0-5.0-0.0-0.0-0.0,0,,,3,,,,,,,,,,,,,,,,,,,,,,,,"

    <p style='text-align: justify;color: black;background: white;font: caption-;'>1. A list of 30 pictures will appear on the screen one at a time. Study the pictures as they appear.</p>
    <p style='text-align: justify;color: black;background: white;font: caption-;'>2. After a brief blank period, you will see a series of numbers. Add these numbers as they appear. When prompted with ""TYPE THE SUM,"" use the number keys to enter your answer.</p>
     
    <p style='text-align: justify; color: black; background: white; font: caption-;'> 
    3. Next, you will see a series of test pictures from the list you just studied. For each picture, press the <strong>""J""</strong> key if you recognize it as one you have seen in the current list. Press the <strong>""F""</strong> key if you don’t recognize it as one from the current list. <br>   
      <strong>Accumulated accuracy will be displayed throughout the experiment. Please pay attention and try to get an averaged performance higher than 60% (chance level is 50%).</strong></p><br>
    <p style='text-align: justify; color: black; background: white; font: caption-;'>
    You will begin with a practice list, followed by nine formal test lists. <strong>For each test, respond based only on the list you JUST studied. If a picture appeared in a previous list but not the current one, press the <strong>""F""</strong> key.</strong>
    </p>

<p style='text-align: justify;color: black;background: white;font: caption-;'>Do not worry if you are unsure about some test pictures. This is normal, but please make your best guess.</p>
    <p style='text-align: justify;color: black;background: white;font: caption-;'>Press the ""Enter"" key to start the practice list.</p>
      
      ",,,,,,,,100896,,,instructions_practice,,,,,8335,,0.14,5,html-keyboard-response,,,,,,,,2562
100896,8EefV2u5ziAHxJG1cZpd,No,,0,True,,,2,r,,,,,,T_nontarget,3,,,,,1728,100896,1 (119).jpg,0.0-8.0-2.0-0.2,0,True,True,3,,True,True,False,False,False,True,4,4,5,10,0,,,1,,,,,,,,,images/1 (119).jpg,Cn+1,Cn,,3,3,0,,100896,,,initial_study,0,0,14,477,12018,,0.21,237,image-keyboard-response,1,0,1,"studied only, in next trial",,,,2562
100896,8VReBhMokVWKezYmwezx,No,,0,,,,2,r,,,,,,,3,,,,,1728,100896,,0.0-7.0-5.0-0.0,0,,,3,,,,,,,,3,,,,,,,,,1,,,,,,,9,,,9,,,,,100896,,57,digitPresentation,,,,,11167,,0.19,191,html-keyboard-response,,,,,,,,2562
100896,9QMvOUbZAx8EtLuh3Bvq,No,,0,False,,,2,r,,,,,,T_target,3,,,,,1728,100896,1 (2390).jpg,0.0-6.0-2.0-0.1,0,True,True,3,,True,True,False,True,True,False,2,2,0,9,0,,,1,,,,,,,,,images/1 (2390).jpg,B,B,,2,2,0,,100896,,,initial_study,9,9,0,420,9567,,0.16,84,image-keyboard-response,1,1,0,"current target, not in next trial",,,,2562
100896,9UEPlJE7E7B4Sygji1aC,No,,0,False,,,2,r,,,,,,T_nontarget,3,,,,,1728,100896,1 (842).jpg,0.0-5.0-2.0-0.7,0,True,True,3,,True,True,False,False,False,False,1,1,0,10,0,,,1,,,,,,,,,images/1 (842).jpg,A,A,,8,8,0,,100896,,,initial_study,0,0,0,449,8436,,0.15,14,image-keyboard-response,1,0,0,"studied only, not in trial",,,,2562
100896,9WWNz7Qim418Grnasi8A,No,,0,,,,2,r,,,,,,,3,,,,,1728,100896,,0.0-6.0-9.0-0.0,0,,,3,,,,,,,,,,,,,,,,,,,,,,,,"<div style=""font-size:60px;"">+</div>",,,,,,,,100896,,,fixation,,,,,10065,,0.17,126,html-keyboard-response,,,,,,,,2562
100896,9myKMHeAQaih2k77Txkc,No,0,0,False,,,2,r,False,False,,,j,T_target,3,,,,,1728,100896,1 (100).jpg,0.0-8.0-10.0-0.9,0,True,True,3,False,True,True,False,True,True,False,4,4,False,,0,,,1,,,,0,,,,,images/1 (100).jpg,B,B,,29,29,0,,100896,,,initialTest_response,10,10,0,419,12707,,0.22,288,image-keyboard-response,1,1,0,"current target, not in next trial",,,,2562
100896,9wH5HukYMrhiBptCsVWc,No,0,0,False,,,2,r,False,False,,,j,T_target,3,,,,,1728,100896,1 (980).jpg,0.0-8.0-10.0-0.19,0,True,True,3,False,True,True,False,True,True,False,4,4,False,,0,,,1,,,,0,,,,,images/1 (980).jpg,B,B,,23,23,0,,100896,,,initialTest_response,20,20,0,205,12933,,0.22,298,image-keyboard-response,1,1,0,"current target, not in next trial",,,,2562
100896,A5QuSWHrEla1U9C123Fl,No,0,0,True,,,2,r,False,False,False,,j,T_target,3,,,,,1728,100896,1 (2312).jpg,0.0-7.0-10.0-0.24,0,True,True,3,False,True,True,False,True,True,True,3,3,4,,0,,,1,,,,0,,,,,images/1 (2312).jpg,Dn+1,Dn,,8,8,0,,100896,,,initialTest_response,25,25,19,102,11835,,0.20,227,image-keyboard-response,1,1,1,"current target, in next trial",,,,2562
100896,AXtsu16X0Dj3H6MNT2gW,No,,0,False,,,2,r,,,,,,T_nontarget,3,,,,,1728,100896,1 (102).jpg,0.0-8.0-2.0-0.14,0,True,True,3,,True,True,False,False,False,False,4,4,0,4,0,,,1,,,,,,,,,images/1 (102).jpg,A,A,,15,15,0,,100896,,,initial_study,0,0,0,165,12159,,0.21,249,image-keyboard-response,1,0,0,"studied only, not in trial",,,,2562
100896,AuKrFrjJrRlBkyAzgRdI,No,,0,False,,,2,r,,,,,,T_nontarget,3,,,,,1728,100896,1 (1423).jpg,0.0-6.0-2.0-0.7,0,False,True,3,,True,True,False,False,False,False,2,2,0,,0,,,1,,,,,,,,,images/1 (1423).jpg,A,A,,8,8,0,,100896,,,initial_study,0,0,0,0,9642,,0.17,90,image-keyboard-response,1,0,0,"studied only, not in trial",,,,2562
100896,AyCAEGMbLNLHuUD4MG68,No,0,0,False,,,2,r,False,False,,,j,T_target,3,,,,,1728,100896,1 (529).jpg,0.0-5.0-10.0-0.21,0,True,True,3,False,True,True,False,True,True,False,1,1,False,,0,,,1,,,,0,,,,,images/1 (529).jpg,B,B,,11,11,0,,100896,,,initialTest_response,22,22,0,433,9332,,0.16,72,image-keyboard-response,1,1,0,"current target, not in next trial",,,,2562
100896,BmwyU8fhn2Js4RS5zmZ8,No,,0,False,,,2,r,,,,,,T_nontarget,3,,,,,1728,100896,1 (1596).jpg,0.0-7.0-2.0-0.5,0,True,True,3,,True,True,False,False,False,False,3,3,0,8,0,,,1,,,,,,,,,images/1 (1596).jpg,A,A,,6,6,0,,100896,,,initial_study,0,0,0,385,10849,,0.19,164,image-keyboard-response,1,0,0,"studied only, not in trial",,,,2562
100896,BthiAGUtePJcuHnztSDv,No,,0,False,,,2,r,,,,,,T_nontarget,3,,,,,1728,100896,1 (2108).jpg,0.0-6.0-2.0-0.12,0,True,True,3,,True,True,False,False,False,False,2,2,0,8,0,,,1,,,,,,,,,images/1 (2108).jpg,A,A,,13,13,0,,100896,,,initial_study,0,0,0,359,9700,,0.17,95,image-keyboard-response,1,0,0,"studied only, not in trial",,,,2562
100896,Bx2gziKQOa6yCBHJyF6I,No,,0,,,,2,r,,,,,,,3,,,,,1728,100896,,0.0-8.0-5.0-0.0,0,,,3,,,,,,,,4,,,,,,,,,1,,,,,,,9,,,9,,,,,100896,,57,digitPresentation,,,,,12365,,0.21,267,html-keyboard-response,,,,,,,,2562
100896,C4TFNF3R8nSuowdZwmFN,No,,0,False,,,2,r,,,,,,T_target,3,,,,,1728,100896,1 (529).jpg,0.0-5.0-2.0-0.10,0,True,True,3,,True,True,False,True,True,False,1,1,0,9,0,,,1,,,,,,,,,images/1 (529).jpg,B,B,,11,11,0,,100896,,,initial_study,22,22,0,433,8473,,0.15,17,image-keyboard-response,1,1,0,"current target, not in next trial",,,,2562
100896,C4ZXzePVjV3ePzI9PTyF,No,,0,False,,,2,r,,,,,,T_nontarget,3,,,,,1728,100896,1 (1901).jpg,0.0-6.0-2.0-0.18,0,True,True,3,,True,True,False,False,False,False,2,2,0,9,0,,,1,,,,,,,,,images/1 (1901).jpg,A,A,,19,19,0,,100896,,,initial_study,0,0,0,422,9770,,0.17,101,image-keyboard-response,1,0,0,"studied only, not in trial",,,,2562
100896,CPlhgvst7bQdf4cCC4TT,No,,0,False,,,2,r,,,,,,T_nontarget,3,,,,,1728,100896,1 (1422).jpg,0.0-8.0-2.0-0.20,0,True,True,3,,True,True,False,False,False,False,4,4,0,8,0,,,1,,,,,,,,,images/1 (1422).jpg,A,A,,21,21,0,,100896,,,initial_study,0,0,0,360,12228,,0.21,255,image-keyboard-response,1,0,0,"studied only, not in trial",,,,2562
100896,CZQZINxKHVn0NpVufMy0,No,,0,,,,2,r,,,,,,,3,,,,,1728,100896,,0.0-6.0-5.0-0.5,0,,,3,,,,,,,,2,,,,,,,,,6,,,,,,,7,,,7,,,,,100896,,52,digitPresentation,,,,,9996,,0.17,120,html-keyboard-response,,,,,,,,2562
100896,ClPQSH3oKWZBgobUNTSs,No,,0,False,,,2,r,,,,,,T_target,3,,,,,1728,100896,1 (1551).jpg,0.0-9.0-2.0-0.22,0,True,True,3,,True,True,False,True,True,False,5,5,0,3,0,,,1,,,,,,,,,images/1 (1551).jpg,B,B,,23,23,0,,100896,,,initial_study,2,2,0,120,13464,,0.23,333,image-keyboard-response,1,1,0,"current target, not in next trial",,,,2562
100896,DEdtqmmUKxesyQRyXu6q,No,,0,True,,,2,r,,,,,,T_nontarget,3,,,,,1728,100896,1 (783).jpg,0.0-8.0-2.0-0.5,0,True,True,3,,True,True,False,False,False,True,4,4,5,10,0,,,1,,,,,,,,,images/1 (783).jpg,Cn+1,Cn,,6,6,0,,100896,,,initial_study,0,0,7,484,12054,,0.21,240,image-keyboard-response,1,0,1,"studied only, in next trial",,,,2562
100896,DMOG7zslf1XkEzmZwN6p,No,0,0,True,,,2,r,False,False,False,,f,T_foil,3,,,,,1728,100896,1 (2126).jpg,0.0-8.0-10.0-0.23,0,True,False,3,False,False,False,False,True,False,True,4,3,4,,0,,,2,,,,0,,,,,images/1 (2126).jpg,Fnn,Fnn,,0,0,0,,100896,,,initialTest_response,24,0,24,298,13020,,0.22,302,image-keyboard-response,0,1,1,"tested only, in next trial, from last trial",,,,2562
100896,DV5GsAKgxlytqJAde0tz,No,0,0,False,,,2,r,False,False,,,j,T_target,3,,,,,1728,100896,1 (2348).jpg,0.0-5.0-10.0-0.18,0,False,True,3,False,True,True,False,True,True,False,1,1,False,,0,,,1,,,,0,,,,,images/1 (2348).jpg,B,B,,15,15,0,,100896,,,initialTest_response,19,19,0,0,9265,,0.16,69,image-keyboard-response,1,1,0,"current target, not in next trial",,,,2562
100896,E0HYSeKwLazBqcMicFY6,No,,0,False,,,2,r,,,,,,T_target,3,,,,,1728,100896,1 (2272).jpg,0.0-5.0-2.0-0.25,0,True,True,3,,True,True,False,True,True,False,1,1,0,6,0,,,1,,,,,,,,,images/1 (2272).jpg,B,B,,26,26,0,,100896,,,initial_study,30,30,0,272,8644,,0.15,32,image-keyboard-response,1,1,0,"current target, not in next trial",,,,2562
100896,E1Uj3p6c3aootfJ5WIg1,No,,0,False,,,2,r,,,,,,T_nontarget,3,,,,,1728,100896,1 (709).jpg,0.0-5.0-2.0-0.16,0,True,True,3,,True,True,False,False,False,False,1,1,0,8,0,,,1,,,,,,,,,images/1 (709).jpg,A,A,,17,17,0,,100896,,,initial_study,0,0,0,358,8541,,0.15,23,image-keyboard-response,1,0,0,"studied only, not in trial",,,,2562
100896,EMT9Ki9lTV2uUwH3yRGw,No,,0,True,,,2,r,,,,,,T_target,3,,,,,1728,100896,1 (1981).jpg,0.0-9.0-2.0-0.26,0,True,True,3,,True,True,False,True,True,True,5,5,6,1,0,,,1,,,,,,,,,images/1 (1981).jpg,Dn+1,Dn,,27,27,0,,100896,,,initial_study,5,5,21,14,13521,,0.23,337,image-keyboard-response,1,1,1,"current target, in next trial",,,,2562
100896,EZDZpp4jFRMDEJSCKTQc,No,,0,False,,,2,r,,,,,,T_target,3,,,,,1728,100896,1 (707).jpg,0.0-9.0-2.0-0.4,0,False,True,3,,True,True,False,True,True,False,5,5,0,,0,,,1,,,,,,,,,images/1 (707).jpg,B,B,,5,5,0,,100896,,,initial_study,19,19,0,0,13249,,0.23,315,image-keyboard-response,1,1,0,"current target, not in next trial",,,,2562
100896,F0p8T8s3ac1zuLMhPYPl,No,,0,,,,2,r,,,,,,,3,,,,,1728,100896,,0.0-8.0-3.0-0.0,0,,,3,,,,,,,,,,,,,,,,,,,,,,,,Summing up the digits as they appear,,,,,,,,100896,,,prompt,,,,,12344,,0.21,265,html-keyboard-response,,,,,,,,2562
100896,FGLlf3gOxudwwFTmtwIF,No,,0,False,,,2,r,,,,,,T_target,3,,,,,1728,100896,1 (1625).jpg,0.0-7.0-2.0-0.17,0,True,True,3,,True,True,False,True,True,False,3,3,0,9,0,,,1,,,,,,,,,images/1 (1625).jpg,B,B,,18,18,0,,100896,,,initial_study,1,1,0,438,10987,,0.19,176,image-keyboard-response,1,1,0,"current target, not in next trial",,,,2562
100896,FKWtcbM8OrXuoSpZjNQR,No,0,0,False,,,2,r,False,False,,,f,T_foil,3,,,,,1728,100896,1 (2300).jpg,0.0-6.0-10.0-0.6,0,False,True,3,False,False,False,False,True,True,False,2,2,False,,0,,,1,,,,0,,,,,images/1 (2300).jpg,Fn+1,Fn,,0,0,0,,100896,,,initialTest_response,7,7,0,0,10209,,0.18,133,image-keyboard-response,0,1,0,"tested only, not in next trial",,,,2562
100896,FVuVSy0foWAorkWII29C,No,,0,True,,,2,r,,,,,,T_target,3,,,,,1728,100896,1 (2301).jpg,0.0-9.0-2.0-0.24,0,False,True,3,,True,True,False,True,True,True,5,5,6,,0,,,1,,,,,,,,,images/1 (2301).jpg,Dn+1,Dn,,25,25,0,,100896,,,initial_study,24,24,18,0,13486,,0.23,335,image-keyboard-response,1,1,1,"current target, in next trial",,,,2562
100896,FX6l1yYqvg0PaVJ2HFyf,No,,0,,,,2,r,,,,,,,3,,,,,1728,100896,,0.0-9.0-5.0-0.1,0,,,3,,,,,,,,5,,,,,,,,,2,,,,,,,4,,,4,,,,,100896,,50,digitPresentation,,,,,13604,,0.23,344,html-keyboard-response,,,,,,,,2562
100896,FXq8uqeuhSPN0SNmumO8,No,0,0,False,,,2,r,False,False,,,j,T_target,3,,,,,1728,100896,1 (1403).jpg,0.0-7.0-10.0-0.7,0,False,True,3,False,True,True,False,True,True,False,3,3,False,,0,,,1,,,,0,,,,,images/1 (1403).jpg,B,B,,10,10,0,,100896,,,initialTest_response,8,8,0,0,11460,,0.20,210,image-keyboard-response,1,1,0,"current target, not in next trial",,,,2562
100896,FZY87x3ycynsyl02VcO5,No,0,0,True,,,2,r,False,False,False,,f,T_foil,3,,,,,1728,100896,1 (360).jpg,0.0-6.0-10.0-0.26,0,False,False,3,False,False,True,False,True,True,True,2,1,2,,0,,,2,,,,0,,,,,images/1 (360).jpg,Dn,Dn,,0,9,0,,100896,,,initialTest_response,27,9,27,0,10676,,0.18,153,image-keyboard-response,1,1,1,"current target, in next trial, from last trial",,,,2562
100896,FaTDpFGjsY8SbO9Kfpml,No,,0,,,,2,r,,,,,,,3,,,,,1728,100896,,0.0-5.0-8.0-0.0,0,,,3,,,,,,,,,,,,,,,,,,,,,,,,Now judge if you have seen this pictures from the list you JUST studied before the digits,,,,,,,,100896,,,prompt,,,,,8836,,0.15,49,html-keyboard-response,,,,,,,,2562
100896,FkWTdHUbSAeGP8SgGMBl,No,0,0,True,,,2,r,False,False,False,,f,T_foil,3,,,,,1728,100896,1 (48).jpg,0.0-5.0-10.0-0.4,0,False,True,3,False,False,False,False,True,True,True,1,1,2,,0,,,1,,,,0,,,,,images/1 (48).jpg,Fnn+1,Fnn,,0,0,0,,100896,,,initialTest_response,5,5,17,0,8956,,0.15,55,image-keyboard-response,0,1,1,"tested only, in next trial",,,,2562
100896,G2LIcYmKfzeFDfEyRw0Z,No,0,0,True,,,2,r,False,,False,,f,T_foil,3,,,,,1728,100896,1 (1435).jpg,0.0-6.0-10.0-0.12,0,True,False,3,False,False,True,False,True,False,True,2,1,2,,0,,,2,,,,0,,,,,images/1 (1435).jpg,Cn,Cn,,0,16,0,,100896,,,initialTest_response,13,0,13,292,10352,,0.18,139,image-keyboard-response,1,0,1,"studied only, in next trial, from last trial",,,,2562
100896,GAUlG6Yyt4MALNhHm8Qt,No,,0,False,,,2,r,,,,,,T_target,3,,,,,1728,100896,1 (2387).jpg,0.0-6.0-2.0-0.24,0,False,True,3,,True,True,False,True,True,False,2,2,0,,0,,,1,,,,,,,,,images/1 (2387).jpg,B,B,,25,25,0,,100896,,,initial_study,10,10,0,0,9840,,0.17,107,image-keyboard-response,1,1,0,"current target, not in next trial",,,,2562
100896,GDw7nrgyQI8GuCskNB4c,No,,0,False,,,2,r,,,,,,T_nontarget,3,,,,,1728,100896,1 (637).jpg,0.0-8.0-2.0-0.25,0,True,True,3,,True,True,False,False,False,False,4,4,0,6,0,,,1,,,,,,,,,images/1 (637).jpg,A,A,,26,26,0,,100896,,,initial_study,0,0,0,294,12288,,0.21,260,image-keyboard-response,1,0,0,"studied only, not in trial",,,,2562
100896,GKOGrByYtzu3M3V3yCoN,No,,0,True,,,2,r,,,,,,T_nontarget,3,,,,,1728,100896,1 (1427).jpg,0.0-6.0-2.0-0.28,0,True,True,3,,True,True,False,False,False,True,2,2,3,5,0,,,1,,,,,,,,,images/1 (1427).jpg,Cn+1,Cn,,29,29,0,,100896,,,initial_study,0,0,9,206,9893,,0.17,111,image-keyboard-response,1,0,1,"studied only, in next trial",,,,2562
100896,GmBr2brlaEsQgX0D8O2C,No,0,0,False,,,2,r,False,False,,,j,T_target,3,,,,,1728,100896,1 (2272).jpg,0.0-5.0-10.0-0.29,0,True,True,3,False,True,True,False,True,True,False,1,1,False,,0,,,1,,,,0,,,,,images/1 (2272).jpg,B,B,,26,26,0,,100896,,,initialTest_response,30,30,0,272,9508,,0.16,80,image-keyboard-response,1,1,0,"current target, not in next trial",,,,2562
100896,GsbpvBhJQHF7EG7wujcS,No,0,0,True,,,2,r,False,False,False,,f,T_foil,3,,,,,1728,100896,1 (2216).jpg,0.0-7.0-10.0-0.18,0,False,True,3,False,False,False,False,True,True,True,3,3,4,,0,,,1,,,,0,,,,,images/1 (2216).jpg,Fnn+1,Fnn,,0,0,0,,100896,,,initialTest_response,19,19,28,0,11706,,0.20,221,image-keyboard-response,0,1,1,"tested only, in next trial",,,,2562
100896,GvE9QFSE0hkXjNqsVxdS,No,0,0,True,,,2,r,False,False,False,,f,T_foil,3,,,,,1728,100896,1 (1794).jpg,0.0-6.0-10.0-0.5,0,True,False,3,False,False,False,False,True,False,True,2,1,2,,0,,,2,,,,0,,,,,images/1 (1794).jpg,Fnn,Fnn,,0,0,0,,100896,,,initialTest_response,6,0,6,357,10187,,0.18,132,image-keyboard-response,0,1,1,"tested only, in next trial, from last trial",,,,2562
100896,HaEWtL2HirQfaDdQxpt6,No,0,0,False,,,2,r,False,False,,,j,T_target,3,,,,,1728,100896,1 (1947).jpg,0.0-5.0-10.0-0.6,0,True,True,3,False,True,True,False,True,True,False,1,1,False,,0,,,1,,,,0,,,,,images/1 (1947).jpg,B,B,,20,20,0,,100896,,,initialTest_response,7,7,0,92,8999,,0.16,57,image-keyboard-response,1,1,0,"current target, not in next trial",,,,2562
100896,HbbNgWznyfw32TTVAYP6,No,,0,False,,,2,r,,,,,,T_target,3,,,,,1728,100896,1 (1899).jpg,0.0-9.0-2.0-0.5,0,True,True,3,,True,True,False,True,True,False,5,5,0,4,0,,,1,,,,,,,,,images/1 (1899).jpg,B,B,,6,6,0,,100896,,,initial_study,27,27,0,186,13261,,0.23,316,image-keyboard-response,1,1,0,"current target, not in next trial",,,,2562
100896,Hch5a0pZ5sJKSXtyP53S,No,0,0,False,,,2,r,False,False,,,f,T_foil,3,,,,,1728,100896,1 (2308).jpg,0.0-5.0-10.0-0.17,0,True,True,3,False,False,False,False,True,True,False,1,1,False,9,0,,,1,,,,0,,,,,images/1 (2308).jpg,Fn+1,Fn,,0,0,0,,100896,,,initialTest_response,18,18,0,412,9244,,0.16,68,image-keyboard-response,0,1,0,"tested only, not in next trial",,,,2562
100896,HovFD8VQvKdBKa9Poarm,No,,0,False,,,2,r,,,,,,T_target,3,,,,,1728,100896,1 (2378).jpg,0.0-8.0-2.0-0.1,0,True,True,3,,True,True,False,True,True,False,4,4,0,4,0,,,1,,,,,,,,,images/1 (2378).jpg,B,B,,2,2,0,,100896,,,initial_study,22,22,0,159,12006,,0.21,236,image-keyboard-response,1,1,0,"current target, not in next trial",,,,2562
100896,HpTavDrubBT50iRl4j3p,No,,0,False,,,2,r,,,,,,T_target,3,,,,,1728,100896,1 (2283).jpg,0.0-7.0-2.0-0.21,0,False,True,3,,True,True,False,True,True,False,3,3,0,,0,,,1,,,,,,,,,images/1 (2283).jpg,B,B,,22,22,0,,100896,,,initial_study,23,23,0,0,11033,,0.19,180,image-keyboard-response,1,1,0,"current target, not in next trial",,,,2562
100896,IEt9IlEJJjYNjjTMcAlz,No,,0,True,,,2,r,,,,,,T_target,3,,,,,1728,100896,1 (329).jpg,0.0-7.0-2.0-0.18,0,True,True,3,,True,True,False,True,True,True,3,3,4,8,0,,,1,,,,,,,,,images/1 (329).jpg,Dn+1,Dn,,19,19,0,,100896,,,initial_study,12,12,9,376,10998,,0.19,177,image-keyboard-response,1,1,1,"current target, in next trial",,,,2562
100896,IKbQDaQP7anFVS69jvki,No,0,0,True,,,2,r,False,False,False,,f,T_foil,3,,,,,1728,100896,1 (1851).jpg,0.0-6.0-10.0-0.7,0,True,True,3,False,False,False,False,True,True,True,2,2,3,4,0,,,1,,,,0,,,,,images/1 (1851).jpg,Fnn+1,Fnn,,0,0,0,,100896,,,initialTest_response,8,8,14,175,10234,,0.18,134,image-keyboard-response,0,1,1,"tested only, in next trial",,,,2562
100896,INuLAcAym1aEwdJBCswA,No,0,0,True,,,2,r,False,False,False,,f,T_foil,3,,,,,1728,100896,1 (1346).jpg,0.0-8.0-10.0-0.14,0,False,False,3,False,False,True,False,True,True,True,4,3,4,,0,,,2,,,,0,,,,,images/1 (1346).jpg,Dn,Dn,,0,21,0,,100896,,,initialTest_response,15,21,15,0,12817,,0.22,293,image-keyboard-response,1,1,1,"current target, in next trial, from last trial",,,,2562
100896,IQMSB6x8oOXORPIA6Ss8,No,0,0,True,,,2,r,False,False,False,,f,T_foil,3,,,,,1728,100896,1 (2312).jpg,0.0-8.0-10.0-0.18,0,True,False,3,False,False,True,False,True,True,True,4,3,4,,0,,,2,,,,0,,,,,images/1 (2312).jpg,Dn,Dn,,0,8,0,,100896,,,initialTest_response,19,8,19,102,12904,,0.22,297,image-keyboard-response,1,1,1,"current target, in next trial, from last trial",,,,2562
100896,IQdGZ0n8iOh1nTAIQCyH,No,,0,False,,,2,r,,,,,,T_nontarget,3,,,,,1728,100896,1 (1635).jpg,0.0-8.0-2.0-0.11,0,True,True,3,,True,True,False,False,False,False,4,4,0,8,0,,,1,,,,,,,,,images/1 (1635).jpg,A,A,,12,12,0,,100896,,,initial_study,0,0,0,369,12126,,0.21,246,image-keyboard-response,1,0,0,"studied only, not in trial",,,,2562
100896,IUyvAaloS8OFTdKEXZ8M,No,0,0,True,,,2,r,False,False,False,,f,T_foil,3,,,,,1728,100896,1 (2216).jpg,0.0-8.0-10.0-0.27,0,False,False,3,False,False,False,False,True,False,True,4,3,4,,0,,,2,,,,0,,,,,images/1 (2216).jpg,Fnn,Fnn,,0,0,0,,100896,,,initialTest_response,28,0,28,0,13109,,0.22,306,image-keyboard-response,0,1,1,"tested only, in next trial, from last trial",,,,2562
100896,IXOHrRKYq2bK70rzXHuA,No,,0,False,,,2,r,,,,,,T_nontarget,3,,,,,1728,100896,1 (97).jpg,0.0-9.0-2.0-0.23,0,False,True,3,,True,True,False,False,False,False,5,5,0,,0,,,1,,,,,,,,,images/1 (97).jpg,A,A,,24,24,0,,100896,,,initial_study,0,0,0,0,13475,,0.23,334,image-keyboard-response,1,0,0,"studied only, not in trial",,,,2562
100896,IdJeOct2FAVHcdAhKlhQ,No,,0,False,,,2,r,,,,,,T_nontarget,3,,,,,1728,100896,1 (495).jpg,0.0-9.0-2.0-0.14,0,False,True,3,,True,True,False,False,False,False,5,5,0,,0,,,1,,,,,,,,,images/1 (495).jpg,A,A,,15,15,0,,100896,,,initial_study,0,0,0,0,13370,,0.23,325,image-keyboard-response,1,0,0,"studied only, not in trial",,,,2562
100896,J5hiGhzLKDfKIuERWviT,No,,0,False,,,2,r,,,,,,T_target,3,,,,,1728,100896,1 (2217).jpg,0.0-5.0-2.0-0.5,0,False,True,3,,True,True,False,True,True,False,1,1,0,,0,,,1,,,,,,,,,images/1 (2217).jpg,B,B,,6,6,0,,100896,,,initial_study,25,25,0,0,8411,,0.15,12,image-keyboard-response,1,1,0,"current target, not in next trial",,,,2562
100896,JVKxG0kcqN25GI4TwOdX,No,0,0,False,,,2,r,False,False,,,j,T_target,3,,,,,1728,100896,1 (168).jpg,0.0-8.0-10.0-0.22,0,False,True,3,False,True,True,False,True,True,False,4,4,False,,0,,,1,,,,0,,,,,images/1 (168).jpg,B,B,,5,5,0,,100896,,,initialTest_response,23,23,0,0,12998,,0.22,301,image-keyboard-response,1,1,0,"current target, not in next trial",,,,2562
100896,JX0uw2uXs9hfnOyHRcaf,No,0,0,False,,,2,r,False,False,,,f,T_foil,3,,,,,1728,100896,1 (290).jpg,0.0-6.0-10.0-0.28,0,True,True,3,False,False,False,False,True,True,False,2,2,False,4,0,,,1,,,,0,,,,,images/1 (290).jpg,Fn+1,Fn,,0,0,0,,100896,,,initialTest_response,29,29,0,203,10721,,0.18,155,image-keyboard-response,0,1,0,"tested only, not in next trial",,,,2562
100896,JivOmzeDngK7LLZ2NhFQ,No,,0,False,,,2,r,,,,,,T_target,3,,,,,1728,100896,1 (1895).jpg,0.0-6.0-2.0-0.20,0,True,True,3,,True,True,False,True,True,False,2,2,0,6,0,,,1,,,,,,,,,images/1 (1895).jpg,B,B,,21,21,0,,100896,,,initial_study,28,28,0,277,9793,,0.17,103,image-keyboard-response,1,1,0,"current target, not in next trial",,,,2562
100896,JkuFMAmy1K36318eQqIR,No,,0,False,,,2,r,,,,,,T_nontarget,3,,,,,1728,100896,1 (1870).jpg,0.0-7.0-2.0-0.19,0,True,True,3,,True,True,False,False,False,False,3,3,0,2,0,,,1,,,,,,,,,images/1 (1870).jpg,A,A,,20,20,0,,100896,,,initial_study,0,0,0,86,11009,,0.19,178,image-keyboard-response,1,0,0,"studied only, not in trial",,,,2562
100896,KBdAon8EJVsjA0Gv0o3l,No,0,0,False,,,2,r,False,False,,,j,T_target,3,,,,,1728,100896,1 (1274).jpg,0.0-8.0-10.0-0.25,0,True,True,3,False,True,True,False,True,True,False,4,4,False,,0,,,1,,,,0,,,,,images/1 (1274).jpg,B,B,,30,30,0,,100896,,,initialTest_response,26,26,0,418,13065,,0.22,304,image-keyboard-response,1,1,0,"current target, not in next trial",,,,2562
100896,KQQRKvhCwagYhCwBXVVK,No,0,0,True,,,2,r,False,False,False,,j,T_target,3,,,,,1728,100896,1 (1780).jpg,0.0-8.0-10.0-0.3,0,True,True,3,False,True,True,False,True,True,True,4,4,5,,0,,,1,,,,0,,,,,images/1 (1780).jpg,Dn+1,Dn,,17,17,0,,100896,,,initialTest_response,4,4,6,66,12567,,0.21,282,image-keyboard-response,1,1,1,"current target, in next trial",,,,2562
100896,KTirA6HrPv5l7tpFlZ9W,No,,0,,,,2,r,,,,,,,3,,,,,1306,100896,,0.0-3.0,0,,,3,,,,,,,,,,,,,,,,,,[0],,"{'consent': ""I have read and understand this information and agree to join this study. <p style='text-align: left'> Clicking to confirm, then press 'enter' to continue.</p>""}",,2544,,,,,,,,,,100896,,,,,,,,6491,,0.11,3,survey-multi-choice,,,,,,,,885
100896,KYZ1onK2fGkIhM7gNZ3Y,No,,0,False,,,2,r,,,,,,T_target,3,,,,,1728,100896,1 (2305).jpg,0.0-8.0-2.0-0.7,0,False,True,3,,True,True,False,True,True,False,4,4,0,,0,,,1,,,,,,,,,images/1 (2305).jpg,B,B,,8,8,0,,100896,,,initial_study,16,16,0,0,12078,,0.21,242,image-keyboard-response,1,1,0,"current target, not in next trial",,,,2562
100896,LEPoVM2E0KkSpCGhdqmM,No,0,0,True,,,2,r,False,False,False,,f,T_foil,3,,,,,1728,100896,1 (1776).jpg,0.0-8.0-10.0-0.24,0,False,True,3,False,False,False,False,True,True,True,4,4,5,,0,,,1,,,,0,,,,,images/1 (1776).jpg,Fnn+1,Fnn,,0,0,0,,100896,,,initialTest_response,25,25,23,0,13043,,0.22,303,image-keyboard-response,0,1,1,"tested only, in next trial",,,,2562
100896,LFi8C3KRhlMBuT2qu8hc,No,0,0,False,,,2,r,False,False,,,f,T_foil,3,,,,,1728,100896,1 (1386).jpg,0.0-5.0-10.0-0.10,0,True,True,3,False,False,False,False,True,True,False,1,1,False,8,0,,,1,,,,0,,,,,images/1 (1386).jpg,Fn+1,Fn,,0,0,0,,100896,,,initialTest_response,11,11,0,380,9090,,0.16,61,image-keyboard-response,0,1,0,"tested only, not in next trial",,,,2562
100896,LZ1Cy6Nq6qbzvrAXwL0l,No,0,0,False,,,2,r,False,False,,,f,T_foil,3,,,,,1728,100896,1 (523).jpg,0.0-8.0-10.0-0.10,0,True,True,3,False,False,False,False,True,True,False,4,4,False,3,0,,,1,,,,0,,,,,images/1 (523).jpg,Fn+1,Fn,,0,0,0,,100896,,,initialTest_response,11,11,0,148,12729,,0.22,289,image-keyboard-response,0,1,0,"tested only, not in next trial",,,,2562
100896,LaWFl17sR1bw6QdDYFPA,No,0,0,False,,,2,r,False,False,,,f,T_foil,3,,,,,1728,100896,1 (966).jpg,0.0-6.0-10.0-0.13,0,True,True,3,False,False,False,False,True,True,False,2,2,False,2,0,,,1,,,,0,,,,,images/1 (966).jpg,Fn+1,Fn,,0,0,0,,100896,,,initialTest_response,14,14,0,82,10376,,0.18,140,image-keyboard-response,0,1,0,"tested only, not in next trial",,,,2562
100896,LvgshBaKe5kSmUISpJ8f,No,,0,True,,,2,r,,,,,,T_nontarget,3,,,,,1728,100896,1 (506).jpg,0.0-9.0-2.0-0.9,0,False,True,3,,True,True,False,False,False,True,5,5,6,,0,,,1,,,,,,,,,images/1 (506).jpg,Cn+1,Cn,,10,10,0,,100896,,,initial_study,0,0,26,0,13307,,0.23,320,image-keyboard-response,1,0,1,"studied only, in next trial",,,,2562
100896,LxCkxmyAO7Frqy0zkP6G,No,,0,False,,,2,r,,,,,,T_target,3,,,,,1728,100896,1 (408).jpg,0.0-5.0-2.0-0.11,0,True,True,3,,True,True,False,True,True,False,1,1,0,7,0,,,1,,,,,,,,,images/1 (408).jpg,B,B,,12,12,0,,100896,,,initial_study,16,16,0,338,8484,,0.15,18,image-keyboard-response,1,1,0,"current target, not in next trial",,,,2562
100896,LygvBuTDHJ1iqPRDndqC,No,0,0,True,,,2,r,False,False,False,,f,T_foil,3,,,,,1728,100896,1 (48).jpg,0.0-6.0-10.0-0.16,0,False,False,3,False,False,False,False,True,False,True,2,1,2,,0,,,2,,,,0,,,,,images/1 (48).jpg,Fnn,Fnn,,0,0,0,,100896,,,initialTest_response,17,0,17,0,10448,,0.18,143,image-keyboard-response,0,1,1,"tested only, in next trial, from last trial",,,,2562
100896,M7IgUp4ZqX1LS9ZGnpMw,No,,0,,,,2,r,,,,,,,3,,,,,1728,100896,,0.0-7.0-4.0-0.0,0,,,3,,,,,,,,,,,,,,,,,,,,,,,,"<div style=""font-size:60px;"">+</div>",,,,,,,,100896,,,fixation,,,,,11156,,0.19,190,html-keyboard-response,,,,,,,,2562
100896,M8MMAlMiNqiMgQHGpHDs,No,,0,,,,2,r,,,,,,,3,[],[],[],,1306,100896,,0.0-0.0,0,,,3,,,,,,,,,,,,,,,,,,,,,,,,,,,,,,,,100896,True,,,,,,,463,False,0.01,0,preload,,,,,,,,885
100896,MBPOT1m70arokmAHqrEa,No,,0,,,,2,r,,,,,,,3,,,,,1728,100896,,0.0-6.0-5.0-0.3,0,,,3,,,,,,,,2,,,,,,,,,4,,,,,,,7,,,7,,,,,100896,,52,digitPresentation,,,,,9974,,0.17,118,html-keyboard-response,,,,,,,,2562
100896,MOLdmpxRNHtxq6mNLaLn,No,,0,False,,,2,r,,,,,,T_target,3,,,,,1728,100896,1 (1131).jpg,0.0-5.0-2.0-0.22,0,True,True,3,,True,True,False,True,True,False,1,1,0,3,0,,,1,,,,,,,,,images/1 (1131).jpg,B,B,,23,23,0,,100896,,,initial_study,6,6,0,118,8610,,0.15,29,image-keyboard-response,1,1,0,"current target, not in next trial",,,,2562
100896,MXG42eTwRB3JzhAxqUdM,No,,0,,,,2,r,,,,,,,3,,,,,1728,100896,,0.0-5.0-5.0-0.5,0,,,3,,,,,,,,1,,,,,,,,,6,,,,,,,8,,,8,,,,,100896,,49,digitPresentation,,,,,8779,,0.15,44,html-keyboard-response,,,,,,,,2562
100896,MfRP3Q1uoaam66zOoHMo,No,,0,True,,,2,r,,,,,,T_nontarget,3,,,,,1728,100896,1 (1368).jpg,0.0-7.0-2.0-0.2,0,False,True,3,,True,True,False,False,False,True,3,3,4,,0,,,1,,,,,,,,,images/1 (1368).jpg,Cn+1,Cn,,3,3,0,,100896,,,initial_study,0,0,2,0,10815,,0.19,161,image-keyboard-response,1,0,1,"studied only, in next trial",,,,2562
100896,MhAGe28duWqw1BreE1dS,No,,0,False,,,2,r,,,,,,T_nontarget,3,,,,,1728,100896,1 (1732).jpg,0.0-7.0-2.0-0.3,0,True,True,3,,True,True,False,False,False,False,3,3,0,7,0,,,1,,,,,,,,,images/1 (1732).jpg,A,A,,4,4,0,,100896,,,initial_study,0,0,0,321,10826,,0.19,162,image-keyboard-response,1,0,0,"studied only, not in trial",,,,2562
100896,MwMCfjzn7kEC2YutTyrU,No,0,0,True,,,2,r,False,False,False,,f,T_foil,3,,,,,1728,100896,1 (2109).jpg,0.0-7.0-10.0-0.14,0,True,False,3,False,False,True,False,True,True,True,3,2,3,,0,,,2,,,,0,,,,,images/1 (2109).jpg,Dn,Dn,,0,15,0,,100896,,,initialTest_response,15,15,15,397,11618,,0.20,217,image-keyboard-response,1,1,1,"current target, in next trial, from last trial",,,,2562
100896,NrPxkeh1hG3ZKgpa9MD4,No,,0,,,,2,r,,,,,,,3,,,,,1728,100896,,0.0-7.0-5.0-0.7,0,,,3,,,,,,,,3,,,,,,,,,8,,,,,,,8,,,8,,,,,100896,,57,digitPresentation,,,,,11247,,0.19,198,html-keyboard-response,,,,,,,,2562
100896,Nzvp14vIIF1MJCcwZCgr,No,,0,True,,,2,r,,,,,,T_nontarget,3,,,,,1728,100896,1 (917).jpg,0.0-5.0-2.0-0.4,0,True,True,3,,True,True,False,False,False,True,1,1,2,6,0,,,1,,,,,,,,,images/1 (917).jpg,Cn+1,Cn,,5,5,0,,100896,,,initial_study,0,0,20,265,8400,,0.15,11,image-keyboard-response,1,0,1,"studied only, in next trial",,,,2562
100896,OT4M8YTJ2CoVEutnFT8W,No,,0,True,,,2,r,,,,,,T_nontarget,3,,,,,1728,100896,1 (1402).jpg,0.0-9.0-2.0-0.11,0,True,True,3,,True,True,False,False,False,True,5,5,6,8,0,,,1,,,,,,,,,images/1 (1402).jpg,Cn+1,Cn,,12,12,0,,100896,,,initial_study,0,0,16,395,13331,,0.23,322,image-keyboard-response,1,0,1,"studied only, in next trial",,,,2562
100896,OWEIoLVkVzNDE54FrGho,No,,0,,,,2,r,False,,,49,,,3,,,,,1728,100896,,0.0-5.0-6.0-0.0-0.0,0,,,3,,,,,,,,,,,,,,,,,,,,"{'answer': 'Skipped after 0.01 seconds', 'question': ""Please enter the sum using your number keyboard <p>Press 'enter' to continue.</p>""}",Please enter the sum using your number keyboard <p>Press 'enter' to continue.</p>,,,,,,,,,,,100896,,,answer_counting,,,,,8814,,0.15,47,survey-text,,,,,,,,2562
100896,OYPMPDFU9mSTbHsC1HMz,No,,0,,,,2,r,,,,,,,3,,,,,1728,100896,,0.0-5.0-3.0-0.0,0,,,3,,,,,,,,,,,,,,,,,,,,,,,,Summing up the digits as they appear,,,,,,,,100896,,,prompt,,,,,8701,,0.15,37,html-keyboard-response,,,,,,,,2562
100896,Oe5i2DP0Yu0DczQrpsNV,No,0,0,False,,,2,r,False,False,,,f,T_foil,3,,,,,1728,100896,1 (522).jpg,0.0-7.0-10.0-0.9,0,False,True,3,False,False,False,False,True,True,False,3,3,False,,0,,,1,,,,0,,,,,images/1 (522).jpg,Fn+1,Fn,,0,0,0,,100896,,,initialTest_response,10,10,0,0,11504,,0.20,212,image-keyboard-response,0,1,0,"tested only, not in next trial",,,,2562
100896,OidPZuVfdQy0PqnqkhGJ,No,0,0,False,,,2,r,False,False,,,f,T_foil,3,,,,,1728,100896,1 (1289).jpg,0.0-5.0-10.0-0.19,0,True,True,3,False,False,False,False,True,True,False,1,1,False,6,0,,,1,,,,0,,,,,images/1 (1289).jpg,Fn+1,Fn,,0,0,0,,100896,,,initialTest_response,20,20,0,257,9287,,0.16,70,image-keyboard-response,0,1,0,"tested only, not in next trial",,,,2562
100896,OnIxJnUOQ5iBS1khKeXl,No,,0,False,,,2,r,,,,,,T_target,3,,,,,1728,100896,1 (394).jpg,0.0-9.0-2.0-0.1,0,True,True,3,,True,True,False,True,True,False,5,5,0,1,0,,,1,,,,,,,,,images/1 (394).jpg,B,B,,2,2,0,,100896,,,initial_study,18,18,0,47,13216,,0.23,312,image-keyboard-response,1,1,0,"current target, not in next trial",,,,2562
100896,OqebwWE2vwM8DbSLobTA,No,0,0,True,,,2,r,False,False,False,,j,T_target,3,,,,,1728,100896,1 (329).jpg,0.0-7.0-10.0-0.11,0,True,True,3,False,True,True,False,True,True,True,3,3,4,,0,,,1,,,,0,,,,,images/1 (329).jpg,Dn+1,Dn,,19,19,0,,100896,,,initialTest_response,12,12,9,376,11553,,0.20,214,image-keyboard-response,1,1,1,"current target, in next trial",,,,2562
100896,PCQr2qetRnmtTp0pIyxL,No,,0,False,,,2,r,,,,,,T_nontarget,3,,,,,1728,100896,1 (91).jpg,0.0-6.0-2.0-0.13,0,True,True,3,,True,True,False,False,False,False,2,2,0,3,0,,,1,,,,,,,,,images/1 (91).jpg,A,A,,14,14,0,,100896,,,initial_study,0,0,0,129,9714,,0.17,96,image-keyboard-response,1,0,0,"studied only, not in trial",,,,2562
100896,PEbFCOiCHwNNO4EuiS7d,No,,0,True,,,2,r,,,,,,T_nontarget,3,,,,,1728,100896,1 (2401).jpg,0.0-6.0-2.0-0.8,0,True,True,3,,True,True,False,False,False,True,2,2,3,8,0,,,1,,,,,,,,,images/1 (2401).jpg,Cn+1,Cn,,9,9,0,,100896,,,initial_study,0,0,3,364,9654,,0.17,91,image-keyboard-response,1,0,1,"studied only, in next trial",,,,2562
100896,PKePuM4ESAy8WnGBgNTH,No,,0,False,,,2,r,,,,,,T_nontarget,3,,,,,1728,100896,1 (868).jpg,0.0-6.0-2.0-0.23,0,True,True,3,,True,True,False,False,False,False,2,2,0,9,0,,,1,,,,,,,,,images/1 (868).jpg,A,A,,24,24,0,,100896,,,initial_study,0,0,0,425,9829,,0.17,106,image-keyboard-response,1,0,0,"studied only, not in trial",,,,2562
100896,PZDpD2H6dhyRvVIAn5Er,No,,0,,,,2,r,,,,,,,3,,,,,1728,100896,,0.0-6.0-5.0-0.1,0,,,3,,,,,,,,2,,,,,,,,,2,,,,,,,9,,,9,,,,,100896,,52,digitPresentation,,,,,9949,,0.17,116,html-keyboard-response,,,,,,,,2562
100896,PnbM2DrtM5W5Uv2aPcnB,No,,0,False,,,2,r,,,,,,T_target,3,,,,,1728,100896,1 (2331).jpg,0.0-9.0-2.0-0.10,0,True,True,3,,True,True,False,True,True,False,5,5,0,7,0,,,1,,,,,,,,,images/1 (2331).jpg,B,B,,11,11,0,,100896,,,initial_study,20,20,0,335,13319,,0.23,321,image-keyboard-response,1,1,0,"current target, not in next trial",,,,2562
100896,PpW3VPds9Eapp6On2Hyx,No,,0,False,,,2,r,,,,,,T_nontarget,3,,,,,1728,100896,1 (1029).jpg,0.0-8.0-2.0-0.6,0,True,True,3,,True,True,False,False,False,False,4,4,0,1,0,,,1,,,,,,,,,images/1 (1029).jpg,A,A,,7,7,0,,100896,,,initial_study,0,0,0,43,12065,,0.21,241,image-keyboard-response,1,0,0,"studied only, not in trial",,,,2562
100896,Pwhev3C5AAUvysej4JoT,No,,0,False,,,2,r,,,,,,T_nontarget,3,,,,,1728,100896,1 (112).jpg,0.0-7.0-2.0-0.12,0,True,True,3,,True,True,False,False,False,False,3,3,0,5,0,,,1,,,,,,,,,images/1 (112).jpg,A,A,,13,13,0,,100896,,,initial_study,0,0,0,217,10930,,0.19,171,image-keyboard-response,1,0,0,"studied only, not in trial",,,,2562
100896,Q2B76X3gwL7pbXuMecyQ,No,,0,,,,2,r,,,,,,,3,,,,,1728,100896,,0.0-9.0-5.0-0.3,0,,,3,,,,,,,,5,,,,,,,,,4,,,,,,,6,,,6,,,,,100896,,50,digitPresentation,,,,,13626,,0.23,346,html-keyboard-response,,,,,,,,2562
100896,QJddEhZsJYR7211cpeX0,No,0,0,True,,,2,r,False,False,False,,f,T_foil,3,,,,,1728,100896,1 (74).jpg,0.0-8.0-10.0-0.5,0,True,False,3,False,False,False,False,True,False,True,4,3,4,,0,,,2,,,,0,,,,,images/1 (74).jpg,Fnn,Fnn,,0,0,0,,100896,,,initialTest_response,6,0,6,306,12612,,0.22,284,image-keyboard-response,0,1,1,"tested only, in next trial, from last trial",,,,2562
100896,QOWXPbGxjlx2OncJMxIt,No,,0,,,,2,r,,,,,,,3,,,,,1728,100896,,0.0-6.0-4.0-0.0,0,,,3,,,,,,,,,,,,,,,,,,,,,,,,"<div style=""font-size:60px;"">+</div>",,,,,,,,100896,,,fixation,,,,,9927,,0.17,114,html-keyboard-response,,,,,,,,2562
100896,QPe8GbOTbYWQl54A24Oc,No,0,0,True,,,2,r,False,False,False,,j,T_target,3,,,,,1728,100896,1 (1497).jpg,0.0-8.0-10.0-0.0,0,True,True,3,False,True,True,False,True,True,True,4,4,5,,0,,,1,,,,0,,,,,images/1 (1497).jpg,Dn+1,Dn,,28,28,0,,100896,,,initialTest_response,1,1,4,140,12500,,0.21,279,image-keyboard-response,1,1,1,"current target, in next trial",,,,2562
100896,QfUBq45KRJJbar5iybIl,No,,0,,,,2,r,,,,,,,3,,,,,1728,100896,,0.0-6.0-5.0-0.0,0,,,3,,,,,,,,2,,,,,,,,,1,,,,,,,7,,,7,,,,,100896,,52,digitPresentation,,,,,9938,,0.17,115,html-keyboard-response,,,,,,,,2562
100896,Qy2pnovDuCGHWpue7fZt,No,,0,False,,,2,r,,,,,,T_target,3,,,,,1728,100896,1 (1433).jpg,0.0-6.0-2.0-0.2,0,True,True,3,,True,True,False,True,True,False,2,2,0,8,0,,,1,,,,,,,,,images/1 (1433).jpg,B,B,,3,3,0,,100896,,,initial_study,22,22,0,356,9578,,0.17,85,image-keyboard-response,1,1,0,"current target, not in next trial",,,,2562
100896,R5RHZQ0aFbLylocmwbZM,No,,0,False,,,2,r,,,,,,T_nontarget,3,,,,,1728,100896,1 (1587).jpg,0.0-9.0-2.0-0.0,0,True,True,3,,True,True,False,False,False,False,5,5,0,5,0,,,1,,,,,,,,,images/1 (1587).jpg,A,A,,1,1,0,,100896,,,initial_study,0,0,0,212,13204,,0.23,311,image-keyboard-response,1,0,0,"studied only, not in trial",,,,2562
100896,RB5ZyDW7QYu7ZBAQofGx,No,,0,,,,2,r,,,,,,,3,,,,,1728,100896,,0.0-9.0-5.0-0.4,0,,,3,,,,,,,,5,,,,,,,,,5,,,,,,,4,,,4,,,,,100896,,50,digitPresentation,,,,,13637,,0.23,347,html-keyboard-response,,,,,,,,2562
100896,REICMAjlBdq4CkOSadNh,No,0,0,False,,,2,r,False,False,,,j,T_target,3,,,,,1728,100896,1 (295).jpg,0.0-6.0-10.0-0.23,0,True,True,3,False,True,True,False,True,True,False,2,2,False,,0,,,1,,,,0,,,,,images/1 (295).jpg,B,B,,7,7,0,,100896,,,initialTest_response,24,24,0,10,10610,,0.18,150,image-keyboard-response,1,1,0,"current target, not in next trial",,,,2562
100896,RJMJWc6JGxAo2BYtalFX,No,,0,True,,,2,r,,,,,,T_target,3,,,,,1728,100896,1 (2176).jpg,0.0-6.0-2.0-0.4,0,False,True,3,,True,True,False,True,True,True,2,2,3,,0,,,1,,,,,,,,,images/1 (2176).jpg,Dn+1,Dn,,5,5,0,,100896,,,initial_study,19,19,17,0,9602,,0.17,87,image-keyboard-response,1,1,1,"current target, in next trial",,,,2562
100896,RnJaTGwLBrvjhSP6HfGL,No,0,0,False,,,2,r,False,False,,,j,T_target,3,,,,,1728,100896,1 (93).jpg,0.0-6.0-10.0-0.3,0,True,True,3,False,True,True,False,True,True,False,2,2,False,,0,,,1,,,,0,,,,,images/1 (93).jpg,B,B,,30,30,0,,100896,,,initialTest_response,4,4,0,312,10143,,0.17,130,image-keyboard-response,1,1,0,"current target, not in next trial",,,,2562
100896,S1StJYsMgIpaPZUyBALR,No,0,0,False,,,2,r,False,False,,,f,T_foil,3,,,,,1728,100896,1 (1829).jpg,0.0-5.0-10.0-0.7,0,False,True,3,False,False,False,False,True,True,False,1,1,False,,0,,,1,,,,0,,,,,images/1 (1829).jpg,Fn+1,Fn,,0,0,0,,100896,,,initialTest_response,8,8,0,0,9021,,0.16,58,image-keyboard-response,0,1,0,"tested only, not in next trial",,,,2562
100896,SJZP6Q5iaAjA3DEAe4NB,No,,0,,,,2,r,,,,,,,3,,,,,1728,100896,,0.0-6.0-3.0-0.0,0,,,3,,,,,,,,,,,,,,,,,,,,,,,,Summing up the digits as they appear,,,,,,,,100896,,,prompt,,,,,9916,,0.17,113,html-keyboard-response,,,,,,,,2562
100896,SXswTtE3DzHv7wa1dXCQ,No,,0,False,,,2,r,,,,,,T_target,3,,,,,1728,100896,1 (1274).jpg,0.0-8.0-2.0-0.29,0,True,True,3,,True,True,False,True,True,False,4,4,0,9,0,,,1,,,,,,,,,images/1 (1274).jpg,B,B,,30,30,0,,100896,,,initial_study,26,26,0,418,12333,,0.21,264,image-keyboard-response,1,1,0,"current target, not in next trial",,,,2562
100896,SpF7kMfgunt8mCGe020f,No,,0,,,,2,r,False,,,52,,,3,,,,,1728,100896,,0.0-6.0-6.0-0.0-0.0,0,,,3,,,,,,,,,,,,,,,,,,,,"{'answer': 'Skipped after 0.01 seconds', 'question': ""Please enter the sum using your number keyboard <p>Press 'enter' to continue.</p>""}",Please enter the sum using your number keyboard <p>Press 'enter' to continue.</p>,,,,,,,,,,,100896,,,answer_counting,,,,,10033,,0.17,123,survey-text,,,,,,,,2562
100896,SquOWNLeuTi70APubb6p,No,0,0,False,,,2,r,False,False,,,j,T_target,3,,,,,1728,100896,1 (1131).jpg,0.0-5.0-10.0-0.5,0,True,True,3,False,True,True,False,True,True,False,1,1,False,,0,,,1,,,,0,,,,,images/1 (1131).jpg,B,B,,23,23,0,,100896,,,initialTest_response,6,6,0,118,8978,,0.16,56,image-keyboard-response,1,1,0,"current target, not in next trial",,,,2562
100896,SvcJZ4J8LsQ7aWmiSgJW,No,,0,False,,,2,r,,,,,,T_target,3,,,,,1728,100896,1 (100).jpg,0.0-8.0-2.0-0.28,0,True,True,3,,True,True,False,True,True,False,4,4,0,9,0,,,1,,,,,,,,,images/1 (100).jpg,B,B,,29,29,0,,100896,,,initial_study,10,10,0,419,12321,,0.21,263,image-keyboard-response,1,1,0,"current target, not in next trial",,,,2562
100896,T5i9CRO9iWMOZDRpsdlF,No,0,0,False,,,2,r,False,False,,,j,T_target,3,,,,,1728,100896,1 (2378).jpg,0.0-8.0-10.0-0.21,0,True,True,3,False,True,True,False,True,True,False,4,4,False,,0,,,1,,,,0,,,,,images/1 (2378).jpg,B,B,,2,2,0,,100896,,,initialTest_response,22,22,0,159,12976,,0.22,300,image-keyboard-response,1,1,0,"current target, not in next trial",,,,2562
100896,TI8CCHAJiXaLTGHVIKv4,No,0,0,False,,,2,r,False,False,,,j,T_target,3,,,,,1728,100896,1 (2390).jpg,0.0-6.0-10.0-0.8,0,True,True,3,False,True,True,False,True,True,False,2,2,False,,0,,,1,,,,0,,,,,images/1 (2390).jpg,B,B,,2,2,0,,100896,,,initialTest_response,9,9,0,420,10256,,0.18,135,image-keyboard-response,1,1,0,"current target, not in next trial",,,,2562
100896,TLGKrCMeAAV1EMMineyH,No,0,0,True,,,2,r,False,,False,,f,T_foil,3,,,,,1728,100896,1 (1865).jpg,0.0-8.0-10.0-0.13,0,True,False,3,False,False,True,False,True,False,True,4,3,4,,0,,,2,,,,0,,,,,images/1 (1865).jpg,Cn,Cn,,0,9,0,,100896,,,initialTest_response,14,0,14,249,12795,,0.22,292,image-keyboard-response,1,0,1,"studied only, in next trial, from last trial",,,,2562
100896,TNTSOUFBiidz3ISgO7Md,No,,0,,,,2,r,,,,,,,3,,,,,1728,100896,,0.0-7.0-5.0-0.1,0,,,3,,,,,,,,3,,,,,,,,,2,,,,,,,7,,,7,,,,,100896,,57,digitPresentation,,,,,11178,,0.19,192,html-keyboard-response,,,,,,,,2562
100896,TPHo3kKWGv7NN8dl0WVq,No,,0,True,,,2,r,,,,,,T_target,3,,,,,1728,100896,1 (221).jpg,0.0-5.0-2.0-0.6,0,True,True,3,,True,True,False,True,True,True,1,1,2,3,0,,,1,,,,,,,,,images/1 (221).jpg,Dn+1,Dn,,7,7,0,,100896,,,initial_study,14,14,25,150,8423,,0.15,13,image-keyboard-response,1,1,1,"current target, in next trial",,,,2562
100896,Td5DFhlA6pxzIN16TM9V,No,,0,,,,2,r,,,,,,,3,,,,,1728,100896,,0.0-5.0-5.0-0.6,0,,,3,,,,,,,,1,,,,,,,,,7,,,,,,,4,,,4,,,,,100896,,49,digitPresentation,,,,,8790,,0.15,45,html-keyboard-response,,,,,,,,2562
100896,TjYwGTl7yxO5U1ie88q2,No,,0,False,,,2,r,,,,,,T_nontarget,3,,,,,1728,100896,1 (699).jpg,0.0-9.0-2.0-0.27,0,True,True,3,,True,True,False,False,False,False,5,5,0,9,0,,,1,,,,,,,,,images/1 (699).jpg,A,A,,28,28,0,,100896,,,initial_study,0,0,0,439,13533,,0.23,338,image-keyboard-response,1,0,0,"studied only, not in trial",,,,2562
100896,TmZGyt5ztDNpqpfrbrKd,No,,0,False,,,2,r,,,,,,T_target,3,,,,,1728,100896,1 (1727).jpg,0.0-8.0-2.0-0.0,0,True,True,3,,True,True,False,True,True,False,4,4,0,6,0,,,1,,,,,,,,,images/1 (1727).jpg,B,B,,1,1,0,,100896,,,initial_study,8,8,0,300,11995,,0.21,235,image-keyboard-response,1,1,0,"current target, not in next trial",,,,2562
100896,U3Uoq1PYD4QKgahDrBsP,No,,0,False,,,2,r,,,,,,T_nontarget,3,,,,,1728,100896,1 (586).jpg,0.0-5.0-2.0-0.26,0,True,True,3,,True,True,False,False,False,False,1,1,0,10,0,,,1,,,,,,,,,images/1 (586).jpg,A,A,,27,27,0,,100896,,,initial_study,0,0,0,486,8655,,0.15,33,image-keyboard-response,1,0,0,"studied only, not in trial",,,,2562
100896,U7ClPaFfg7xuD6KC9oi6,No,,0,False,,,2,r,,,,,,T_target,3,,,,,1728,100896,1 (791).jpg,0.0-8.0-2.0-0.13,0,False,True,3,,True,True,False,True,True,False,4,4,0,,0,,,1,,,,,,,,,images/1 (791).jpg,B,B,,14,14,0,,100896,,,initial_study,12,12,0,0,12148,,0.21,248,image-keyboard-response,1,1,0,"current target, not in next trial",,,,2562
100896,U81RCi6fnoG3syDWJXQM,No,0,0,False,,,2,r,False,False,,,j,T_target,3,,,,,1728,100896,1 (903).jpg,0.0-6.0-10.0-0.2,0,False,True,3,False,True,True,False,True,True,False,2,2,False,,0,,,1,,,,0,,,,,images/1 (903).jpg,B,B,,28,28,0,,100896,,,initialTest_response,3,3,0,0,10121,,0.17,129,image-keyboard-response,1,1,0,"current target, not in next trial",,,,2562
100896,UANVJaBx5zqeNew8Jq5e,No,,0,,,,2,r,,,,,,,3,,,,,1728,100896,,0.0-6.0-8.0-0.0,0,,,3,,,,,,,,,,,,,,,,,,,,,,,,Now judge if you have seen this pictures from the list you JUST studied before the digits,,,,,,,,100896,,,prompt,,,,,10054,,0.17,125,html-keyboard-response,,,,,,,,2562
100896,UIBf427Uk0QAu7yYVsoD,No,,0,False,,,2,r,,,,,,T_target,3,,,,,1728,100896,1 (1027).jpg,0.0-5.0-2.0-0.2,0,True,True,3,,True,True,False,True,True,False,1,1,0,3,0,,,1,,,,,,,,,images/1 (1027).jpg,B,B,,3,3,0,,100896,,,initial_study,23,23,0,117,8378,,0.15,9,image-keyboard-response,1,1,0,"current target, not in next trial",,,,2562
100896,ULmu5rZu6I2xa5FKuRAQ,No,0,0,False,,,2,r,False,False,,,f,T_foil,3,,,,,1728,100896,1 (852).jpg,0.0-7.0-10.0-0.27,0,True,True,3,False,False,False,False,True,True,False,3,3,False,4,0,,,1,,,,0,,,,,images/1 (852).jpg,Fn+1,Fn,,0,0,0,,100896,,,initialTest_response,28,28,0,182,11903,,0.20,230,image-keyboard-response,0,1,0,"tested only, not in next trial",,,,2562
100896,UazLHNmAaYZnBeN7raqO,No,,0,False,,,2,r,,,,,,T_nontarget,3,,,,,1728,100896,1 (698).jpg,0.0-7.0-2.0-0.0,0,False,True,3,,True,True,False,False,False,False,3,3,0,,0,,,1,,,,,,,,,images/1 (698).jpg,A,A,,1,1,0,,100896,,,initial_study,0,0,0,0,10793,,0.19,159,image-keyboard-response,1,0,0,"studied only, not in trial",,,,2562
100896,VFse49yUi8McWMkYYdB3,No,,0,True,,,2,r,,,,,,T_target,3,,,,,1728,100896,1 (1148).jpg,0.0-8.0-2.0-0.15,0,False,True,3,,True,True,False,True,True,True,4,4,5,,0,,,1,,,,,,,,,images/1 (1148).jpg,Dn+1,Dn,,16,16,0,,100896,,,initial_study,18,18,25,0,12171,,0.21,250,image-keyboard-response,1,1,1,"current target, in next trial",,,,2562
100896,Vc05JuK2EfrX2pCJah4A,No,0,0,False,,,2,r,False,False,,,j,T_target,3,,,,,1728,100896,1 (2305).jpg,0.0-8.0-10.0-0.15,0,False,True,3,False,True,True,False,True,True,False,4,4,False,,0,,,1,,,,0,,,,,images/1 (2305).jpg,B,B,,8,8,0,,100896,,,initialTest_response,16,16,0,0,12839,,0.22,294,image-keyboard-response,1,1,0,"current target, not in next trial",,,,2562
100896,Vh7tAKfLUrtcVWd0lxLM,No,,0,,,,2,r,,,,,,,3,,,,,1728,100896,,0.0-8.0-5.0-0.6,0,,,3,,,,,,,,4,,,,,,,,,7,,,,,,,8,,,8,,,,,100896,,57,digitPresentation,,,,,12432,,0.21,273,html-keyboard-response,,,,,,,,2562
100896,W7GcKaZYWm5CEIXCKguh,No,,0,False,,,2,r,,,,,,T_target,3,,,,,1728,100896,1 (1546).jpg,0.0-9.0-2.0-0.18,0,False,True,3,,True,True,False,True,True,False,5,5,0,,0,,,1,,,,,,,,,images/1 (1546).jpg,B,B,,19,19,0,,100896,,,initial_study,12,12,0,0,13414,,0.23,329,image-keyboard-response,1,1,0,"current target, not in next trial",,,,2562
100896,WGTyPQzRRMRnuABYH8lR,No,,0,,,,2,r,,,,,,,3,,,,,1728,100896,,0.0-8.0-9.0-0.0,0,,,3,,,,,,,,,,,,,,,,,,,,,,,,"<div style=""font-size:60px;"">+</div>",,,,,,,,100896,,,fixation,,,,,12489,,0.21,278,html-keyboard-response,,,,,,,,2562
100896,WMb1846OMVj1QE0EHHtb,No,0,0,True,,,2,r,False,False,False,,j,T_target,3,,,,,1728,100896,1 (1346).jpg,0.0-7.0-10.0-0.6,0,False,True,3,False,True,True,False,True,True,True,3,3,4,,0,,,1,,,,0,,,,,images/1 (1346).jpg,Dn+1,Dn,,21,21,0,,100896,,,initialTest_response,7,7,15,0,11439,,0.20,209,image-keyboard-response,1,1,1,"current target, in next trial",,,,2562
100896,WhgIKdKhPSOL2qoymXWe,No,0,0,False,,,2,r,False,False,,,f,T_foil,3,,,,,1728,100896,1 (1441).jpg,0.0-8.0-10.0-0.12,0,True,True,3,False,False,False,False,True,True,False,4,4,False,3,0,,,1,,,,0,,,,,images/1 (1441).jpg,Fn+1,Fn,,0,0,0,,100896,,,initialTest_response,13,13,0,114,12773,,0.22,291,image-keyboard-response,0,1,0,"tested only, not in next trial",,,,2562
100896,WlNpiCNbtpACTygeYwP4,No,0,0,True,,,2,r,False,False,False,,j,T_target,3,,,,,1728,100896,1 (2109).jpg,0.0-6.0-10.0-0.20,0,True,True,3,False,True,True,False,True,True,True,2,2,3,,0,,,1,,,,0,,,,,images/1 (2109).jpg,Dn+1,Dn,,15,15,0,,100896,,,initialTest_response,21,21,15,397,10543,,0.18,147,image-keyboard-response,1,1,1,"current target, in next trial",,,,2562
100896,X1Zo1HHpMPsWSe7iHk8W,No,,0,,,,2,r,,,,,,,3,,,,,1728,100896,,0.0-6.0-5.0-0.6,0,,,3,,,,,,,,2,,,,,,,,,7,,,,,,,7,,,7,,,,,100896,,52,digitPresentation,,,,,10006,,0.17,121,html-keyboard-response,,,,,,,,2562
100896,XGO6gwiSoAdD5zRnVH0o,No,0,0,True,,,2,r,False,False,False,,f,T_foil,3,,,,,1728,100896,1 (525).jpg,0.0-5.0-10.0-0.8,0,True,True,3,False,False,False,False,True,True,True,1,1,2,7,0,,,1,,,,0,,,,,images/1 (525).jpg,Fnn+1,Fnn,,0,0,0,,100896,,,initialTest_response,9,9,5,342,9046,,0.16,59,image-keyboard-response,0,1,1,"tested only, in next trial",,,,2562
100896,XIqYiuL2mbOsg4DU5PM3,No,,0,False,,,2,r,,,,,,T_target,3,,,,,1728,100896,1 (2201).jpg,0.0-7.0-2.0-0.1,0,True,True,3,,True,True,False,True,True,False,3,3,0,10,0,,,1,,,,,,,,,images/1 (2201).jpg,B,B,,2,2,0,,100896,,,initial_study,11,11,0,463,10804,,0.19,160,image-keyboard-response,1,1,0,"current target, not in next trial",,,,2562
100896,XLEPKJ15dZTPDxYlKohq,No,,0,False,,,2,r,,,,,,T_target,3,,,,,1728,100896,1 (1757).jpg,0.0-7.0-2.0-0.22,0,True,True,3,,True,True,False,True,True,False,3,3,0,9,0,,,1,,,,,,,,,images/1 (1757).jpg,B,B,,23,23,0,,100896,,,initial_study,21,21,0,423,11045,,0.19,181,image-keyboard-response,1,1,0,"current target, not in next trial",,,,2562
100896,Xxw3kompCcJswN4EpF4f,No,0,0,False,,,2,r,False,False,,,j,T_target,3,,,,,1728,100896,1 (494).jpg,0.0-6.0-10.0-0.25,0,True,True,3,False,True,True,False,True,True,False,2,2,False,,0,,,1,,,,0,,,,,images/1 (494).jpg,B,B,,1,1,0,,100896,,,initialTest_response,26,26,0,274,10654,,0.18,152,image-keyboard-response,1,1,0,"current target, not in next trial",,,,2562
100896,Y3RBaW9L8iEkU2WyUtLl,No,,0,False,,,2,r,,,,,,T_nontarget,3,,,,,1728,100896,1 (256).jpg,0.0-7.0-2.0-0.24,0,False,True,3,,True,True,False,False,False,False,3,3,0,,0,,,1,,,,,,,,,images/1 (256).jpg,A,A,,25,25,0,,100896,,,initial_study,0,0,0,0,11068,,0.19,183,image-keyboard-response,1,0,0,"studied only, not in trial",,,,2562
100896,YRJ0E011BroN6zSEin2W,No,,0,False,,,2,r,,,,,,T_nontarget,3,,,,,1728,100896,1 (856).jpg,0.0-9.0-2.0-0.25,0,True,True,3,,True,True,False,False,False,False,5,5,0,9,0,,,1,,,,,,,,,images/1 (856).jpg,A,A,,26,26,0,,100896,,,initial_study,0,0,0,404,13500,,0.23,336,image-keyboard-response,1,0,0,"studied only, not in trial",,,,2562
100896,Yf36G4tqoG5eyW6blk6m,No,,0,,,,2,r,,,,,,,3,,,,,1728,100896,,0.0-9.0-5.0-0.0,0,,,3,,,,,,,,5,,,,,,,,,1,,,,,,,8,,,8,,,,,100896,,50,digitPresentation,,,,,13593,,0.23,343,html-keyboard-response,,,,,,,,2562
100896,YlH4z8dvtx0rR3OtqKC5,No,,0,,,,2,r,,,,,,,3,,,,,1728,100896,,0.0-7.0-3.0-0.0,0,,,3,,,,,,,,,,,,,,,,,,,,,,,,Summing up the digits as they appear,,,,,,,,100896,,,prompt,,,,,11146,,0.19,189,html-keyboard-response,,,,,,,,2562
100896,YsKiNmaO4ASXZ8FTt5Ke,No,0,0,False,,,2,r,False,False,,,j,T_target,3,,,,,1728,100896,1 (1757).jpg,0.0-7.0-10.0-0.20,0,True,True,3,False,True,True,False,True,True,False,3,3,False,,0,,,1,,,,0,,,,,images/1 (1757).jpg,B,B,,23,23,0,,100896,,,initialTest_response,21,21,0,423,11752,,0.20,223,image-keyboard-response,1,1,0,"current target, not in next trial",,,,2562
100896,YuNLAhVhHOACL6gVX8GO,No,,0,True,,,2,r,,,,,,T_nontarget,3,,,,,1728,100896,1 (2314).jpg,0.0-6.0-2.0-0.10,0,False,True,3,,True,True,False,False,False,True,2,2,3,,0,,,1,,,,,,,,,images/1 (2314).jpg,Cn+1,Cn,,11,11,0,,100896,,,initial_study,0,0,24,0,9677,,0.17,93,image-keyboard-response,1,0,1,"studied only, in next trial",,,,2562
100896,YwzLoZ469iq8DjI8nypH,No,0,0,True,,,2,r,False,False,False,,f,T_foil,3,,,,,1728,100896,1 (1815).jpg,0.0-6.0-10.0-0.29,0,True,False,3,False,False,True,False,True,True,True,2,1,2,,0,,,2,,,,0,,,,,images/1 (1815).jpg,Dn,Dn,,0,28,0,,100896,,,initialTest_response,30,28,30,223,10743,,0.18,156,image-keyboard-response,1,1,1,"current target, in next trial, from last trial",,,,2562
100896,ZMfY7wxpnkPNo3M1yQ7P,No,,0,,,,2,r,False,,,57,,,3,,,,,1728,100896,,0.0-7.0-6.0-0.0-0.0,0,,,3,,,,,,,,,,,,,,,,,,,,"{'answer': 'Skipped after 0.01 seconds', 'question': ""Please enter the sum using your number keyboard <p>Press 'enter' to continue.</p>""}",Please enter the sum using your number keyboard <p>Press 'enter' to continue.</p>,,,,,,,,,,,100896,,,answer_counting,,,,,11261,,0.19,199,survey-text,,,,,,,,2562
100896,ZR1KKaXW5Hz0A7m17jmJ,No,,0,,,,2,r,,,,,,,3,,,,,1728,100896,,0.0-8.0-5.0-0.7,0,,,3,,,,,,,,4,,,,,,,,,8,,,,,,,7,,,7,,,,,100896,,57,digitPresentation,,,,,12443,,0.21,274,html-keyboard-response,,,,,,,,2562
100896,ZYU4A9S6hNSWeZMFzDMx,No,0,0,True,,,2,r,False,,False,,f,T_foil,3,,,,,1728,100896,1 (1368).jpg,0.0-8.0-10.0-0.1,0,False,False,3,False,False,True,False,True,False,True,4,3,4,,0,,,2,,,,0,,,,,images/1 (1368).jpg,Cn,Cn,,0,3,0,,100896,,,initialTest_response,2,0,2,0,12522,,0.21,280,image-keyboard-response,1,0,1,"studied only, in next trial, from last trial",,,,2562
100896,ZaXkA7phCla4IX3JIS9a,No,,0,,,,2,r,,,,,,,3,,,,,1728,100896,,0.0-9.0-5.0-0.2,0,,,3,,,,,,,,5,,,,,,,,,3,,,,,,,5,,,5,,,,,100896,,50,digitPresentation,,,,,13616,,0.23,345,html-keyboard-response,,,,,,,,2562
100896,Zc2M9eynYDCwz3SVYl5G,No,0,0,True,,,2,r,False,False,False,,j,T_target,3,,,,,1728,100896,1 (2176).jpg,0.0-6.0-10.0-0.18,0,False,True,3,False,True,True,False,True,True,True,2,2,3,,0,,,1,,,,0,,,,,images/1 (2176).jpg,Dn+1,Dn,,5,5,0,,100896,,,initialTest_response,19,19,17,0,10493,,0.18,145,image-keyboard-response,1,1,1,"current target, in next trial",,,,2562
100896,aAeyYA0UQgZNfcHNnYsG,No,0,0,False,,,2,r,False,False,,,f,T_foil,3,,,,,1728,100896,1 (1511).jpg,0.0-5.0-10.0-0.28,0,False,True,3,False,False,False,False,True,True,False,1,1,False,,0,,,1,,,,0,,,,,images/1 (1511).jpg,Fn+1,Fn,,0,0,0,,100896,,,initialTest_response,29,29,0,0,9486,,0.16,79,image-keyboard-response,0,1,0,"tested only, not in next trial",,,,2562
100896,atf37P7jNDDehLz8Mdsi,No,,0,False,,,2,r,,,,,,T_target,3,,,,,1728,100896,1 (1479).jpg,0.0-7.0-2.0-0.15,0,True,True,3,,True,True,False,True,True,False,3,3,0,4,0,,,1,,,,,,,,,images/1 (1479).jpg,B,B,,16,16,0,,100896,,,initial_study,13,13,0,166,10965,,0.19,174,image-keyboard-response,1,1,0,"current target, not in next trial",,,,2562
100896,bWJtBGLFNN6ZNVosvnvO,No,,0,False,,,2,r,,,,,,T_target,3,,,,,1728,100896,1 (1980).jpg,0.0-7.0-2.0-0.14,0,True,True,3,,True,True,False,True,True,False,3,3,0,2,0,,,1,,,,,,,,,images/1 (1980).jpg,B,B,,15,15,0,,100896,,,initial_study,29,29,0,96,10953,,0.19,173,image-keyboard-response,1,1,0,"current target, not in next trial",,,,2562
100896,bbPbh0w3ICc2FGDfayTG,No,,0,,,,2,r,,,,,,,3,,,,,1728,100896,,0.0-6.0-1.0-0.0,0,,,3,,,,,,,,,,,,,,,,,,,,,,,,"<div style=""font-size:60px;"">+</div>",,,,,,,,100896,,,fixation,,,,,9545,,0.16,82,html-keyboard-response,,,,,,,,2562
100896,bcmsywE9Cbboe34WHJiW,No,0,0,False,,,2,r,False,False,,,f,T_foil,3,,,,,1728,100896,1 (291).jpg,0.0-5.0-10.0-0.23,0,True,True,3,False,False,False,False,True,True,False,1,1,False,5,0,,,1,,,,0,,,,,images/1 (291).jpg,Fn+1,Fn,,0,0,0,,100896,,,initialTest_response,24,24,0,221,9376,,0.16,74,image-keyboard-response,0,1,0,"tested only, not in next trial",,,,2562
100896,bouUX3SCd1JBCy7WGmjs,No,0,0,False,,,2,r,False,False,,,j,T_target,3,,,,,1728,100896,1 (1625).jpg,0.0-7.0-10.0-0.0,0,True,True,3,False,True,True,False,True,True,False,3,3,False,,0,,,1,,,,0,,,,,images/1 (1625).jpg,B,B,,18,18,0,,100896,,,initialTest_response,1,1,0,438,11307,,0.19,203,image-keyboard-response,1,1,0,"current target, not in next trial",,,,2562
100896,c5dUZR53iU8dWt1TbL44,No,,0,False,,,2,r,,,,,,T_target,3,,,,,1728,100896,1 (574).jpg,0.0-5.0-2.0-0.13,0,True,True,3,,True,True,False,True,True,False,1,1,0,2,0,,,1,,,,,,,,,images/1 (574).jpg,B,B,,14,14,0,,100896,,,initial_study,26,26,0,98,8506,,0.15,20,image-keyboard-response,1,1,0,"current target, not in next trial",,,,2562
100896,c8QcKlX5rOyn5Ikhrxdt,No,,0,,,,2,r,,,,,,,3,,,,,1728,100896,,0.0-5.0-5.0-0.1,0,,,3,,,,,,,,1,,,,,,,,,2,,,,,,,7,,,7,,,,,100896,,49,digitPresentation,,,,,8734,,0.15,40,html-keyboard-response,,,,,,,,2562
100896,cJIdGST9uwYw01RVQXzO,No,0,0,True,,,2,r,False,False,False,,f,T_foil,3,,,,,1728,100896,1 (2355).jpg,0.0-7.0-10.0-0.17,0,True,False,3,False,False,True,False,True,True,True,3,2,3,,0,,,2,,,,0,,,,,images/1 (2355).jpg,Dn,Dn,,0,26,0,,100896,,,initialTest_response,18,26,18,202,11684,,0.20,220,image-keyboard-response,1,1,1,"current target, in next trial, from last trial",,,,2562
100896,cgRL1TkoroCemyzgv78U,No,,0,,,,2,r,,,,,,,3,,,,,1728,100896,,0.0-7.0-0.0-0.0,0,,,3,,,,,,,,,,,,,,,,,,,,,,,,"
    <p style='text-align: justify;color: black;background: white;font: caption-;''>
        Press the 'enter' key to see the next list of pictures. </p>
    ",,,,,,,,100896,,,,,,,,10765,,0.18,157,html-keyboard-response,,,,,,,,2562
100896,cpbVXM5EFaiZhCPWAwoh,No,,0,True,,,2,r,,,,,,T_target,3,,,,,1728,100896,1 (1780).jpg,0.0-8.0-2.0-0.16,0,True,True,3,,True,True,False,True,True,True,4,4,5,2,0,,,1,,,,,,,,,images/1 (1780).jpg,Dn+1,Dn,,17,17,0,,100896,,,initial_study,4,4,6,66,12182,,0.21,251,image-keyboard-response,1,1,1,"current target, in next trial",,,,2562
100896,crbypRZMrruqxdcVXI6u,No,,0,False,,,2,r,,,,,,T_target,3,,,,,1728,100896,1 (1947).jpg,0.0-5.0-2.0-0.19,0,True,True,3,,True,True,False,True,True,False,1,1,0,2,0,,,1,,,,,,,,,images/1 (1947).jpg,B,B,,20,20,0,,100896,,,initial_study,7,7,0,92,8576,,0.15,26,image-keyboard-response,1,1,0,"current target, not in next trial",,,,2562
100896,cuqjz988VSwU72Vv9t8x,No,,0,,,,2,r,,,,,,,3,,,,,1728,100896,,0.0-6.0-0.0-0.0,0,,,3,,,,,,,,,,,,,,,,,,,,,,,,"
    <p style='text-align: justify;color: black;background: white;font: caption-;''>
        Now you have finished the practice. When ready, start the study list with the ‘enter’ key.</p><p> Remember, respond based only on the list you JUST studied. If a picture appeared in a previous list but not the current one, press the <strong>""F""</strong> key.</p>
    ",,,,,,,,100896,,,,,,,,9530,,0.16,81,html-keyboard-response,,,,,,,,2562
100896,d4picToFOOV5eIcHYrts,No,,0,,,,2,r,,,,,,,3,,,,,1728,100896,,0.0-5.0-9.0-0.0,0,,,3,,,,,,,,,,,,,,,,,,,,,,,,"<div style=""font-size:60px;"">+</div>",,,,,,,,100896,,,fixation,,,,,8847,,0.15,50,html-keyboard-response,,,,,,,,2562
100896,dQ68ejtB3hQctW7vVBQi,No,,0,,,,2,r,,,,,,,3,,,,,1728,100896,,0.0-6.0-7.0-0.0,0,,,3,,,,,,,,,,,,,,,,,,,,,,,,<p background:white>INCORRECT!</p>,,,,,,,,100896,,,promptfeedback,,,,,10044,,0.17,124,html-keyboard-response,,,,,,,,2562
100896,dTmJSWALwhECgrt6UlsT,No,,0,True,,,2,r,,,,,,T_target,3,,,,,1728,100896,1 (2355).jpg,0.0-6.0-2.0-0.25,0,True,True,3,,True,True,False,True,True,True,2,2,3,4,0,,,1,,,,,,,,,images/1 (2355).jpg,Dn+1,Dn,,26,26,0,,100896,,,initial_study,18,18,18,202,9852,,0.17,108,image-keyboard-response,1,1,1,"current target, in next trial",,,,2562
100896,dWaTisfmbmCSIjnLrhZH,No,,0,False,,,2,r,,,,,,T_nontarget,3,,,,,1728,100896,1 (2363).jpg,0.0-7.0-2.0-0.29,0,True,True,3,,True,True,False,False,False,False,3,3,0,7,0,,,1,,,,,,,,,images/1 (2363).jpg,A,A,,30,30,0,,100896,,,initial_study,0,0,0,343,11130,,0.19,188,image-keyboard-response,1,0,0,"studied only, not in trial",,,,2562
100896,dXphTYSvxZuh97tssqro,No,,0,True,,,2,r,,,,,,T_target,3,,,,,1728,100896,1 (1497).jpg,0.0-8.0-2.0-0.27,0,True,True,3,,True,True,False,True,True,True,4,4,5,3,0,,,1,,,,,,,,,images/1 (1497).jpg,Dn+1,Dn,,28,28,0,,100896,,,initial_study,1,1,4,140,12310,,0.21,262,image-keyboard-response,1,1,1,"current target, in next trial",,,,2562
100896,duvJFx5ZYbx64YpQfz5f,No,,0,False,,,2,r,,,,,,T_nontarget,3,,,,,1728,100896,1 (1156).jpg,0.0-6.0-2.0-0.17,0,False,True,3,,True,True,False,False,False,False,2,2,0,,0,,,1,,,,,,,,,images/1 (1156).jpg,A,A,,18,18,0,,100896,,,initial_study,0,0,0,0,9758,,0.17,100,image-keyboard-response,1,0,0,"studied only, not in trial",,,,2562
100896,e6WDLeK0kh7o3krRseQ9,No,0,0,True,,,2,r,False,False,False,,f,T_foil,3,,,,,1728,100896,1 (1444).jpg,0.0-8.0-10.0-0.29,0,True,True,3,False,False,False,False,True,True,True,4,4,5,7,0,,,1,,,,0,,,,,images/1 (1444).jpg,Fnn+1,Fnn,,0,0,0,,100896,,,initialTest_response,30,30,8,346,13154,,0.22,308,image-keyboard-response,0,1,1,"tested only, in next trial",,,,2562
100896,e6iSR07SLFmLNQdTjOOK,No,0,0,True,,,2,r,False,False,False,,f,T_foil,3,,,,,1728,100896,1 (752).jpg,0.0-7.0-10.0-0.4,0,True,False,3,False,False,False,False,True,False,True,3,2,3,,0,,,2,,,,0,,,,,images/1 (752).jpg,Fnn,Fnn,,0,0,0,,100896,,,initialTest_response,5,0,5,169,11395,,0.20,207,image-keyboard-response,0,1,1,"tested only, in next trial, from last trial",,,,2562
100896,e7YbtaX22inL9HXmaGYs,No,,0,False,,,2,r,,,,,,T_target,3,,,,,1728,100896,1 (1403).jpg,0.0-7.0-2.0-0.9,0,False,True,3,,True,True,False,True,True,False,3,3,0,,0,,,1,,,,,,,,,images/1 (1403).jpg,B,B,,10,10,0,,100896,,,initial_study,8,8,0,0,10895,,0.19,168,image-keyboard-response,1,1,0,"current target, not in next trial",,,,2562
100896,eBmuQ0LJLBiFZ55NbjpH,No,,0,False,,,2,r,,,,,,T_target,3,,,,,1728,100896,1 (1062).jpg,0.0-6.0-2.0-0.26,0,False,True,3,,True,True,False,True,True,False,2,2,0,,0,,,1,,,,,,,,,images/1 (1062).jpg,B,B,,27,27,0,,100896,,,initial_study,2,2,0,0,9870,,0.17,109,image-keyboard-response,1,1,0,"current target, not in next trial",,,,2562
100896,eER3ckNlnGhDlsijhATi,No,0,0,True,,,2,r,False,,False,,f,T_foil,3,,,,,1728,100896,1 (1427).jpg,0.0-7.0-10.0-0.8,0,True,False,3,False,False,True,False,True,False,True,3,2,3,,0,,,2,,,,0,,,,,images/1 (1427).jpg,Cn,Cn,,0,29,0,,100896,,,initialTest_response,9,0,9,206,11482,,0.20,211,image-keyboard-response,1,0,1,"studied only, in next trial, from last trial",,,,2562
100896,eYZuB2rtTwFqVC8seYCx,No,,0,,,,2,r,,,,,,,3,,,,,1728,100896,,0.0-7.0-5.0-0.6,0,,,3,,,,,,,,3,,,,,,,,,7,,,,,,,8,,,8,,,,,100896,,57,digitPresentation,,,,,11235,,0.19,197,html-keyboard-response,,,,,,,,2562
100896,fEVy9rffhUa8533oYVfK,No,,0,,,,2,r,,,,,,,3,,,,,1728,100896,,0.0-6.0-5.0-0.4,0,,,3,,,,,,,,2,,,,,,,,,5,,,,,,,4,,,4,,,,,100896,,52,digitPresentation,,,,,9984,,0.17,119,html-keyboard-response,,,,,,,,2562
100896,fMy6INyR3Z1i8ZxSdWru,No,,0,False,,,2,r,,,,,,T_target,3,,,,,1728,100896,1 (1989).jpg,0.0-5.0-2.0-0.24,0,False,True,3,,True,True,False,True,True,False,1,1,0,,0,,,1,,,,,,,,,images/1 (1989).jpg,B,B,,25,25,0,,100896,,,initial_study,21,21,0,0,8634,,0.15,31,image-keyboard-response,1,1,0,"current target, not in next trial",,,,2562
100896,fcIJZtyY8sf0U1oGVdbt,No,0,0,False,,,2,r,False,False,,,j,T_target,3,,,,,1728,100896,1 (2201).jpg,0.0-7.0-10.0-0.10,0,True,True,3,False,True,True,False,True,True,False,3,3,False,,0,,,1,,,,0,,,,,images/1 (2201).jpg,B,B,,2,2,0,,100896,,,initialTest_response,11,11,0,463,11527,,0.20,213,image-keyboard-response,1,1,0,"current target, not in next trial",,,,2562
100896,fhpiE2YPI7HTgAWeJ24Y,No,,0,False,,,2,r,,,,,,T_target,3,,,,,1728,100896,1 (1311).jpg,0.0-9.0-2.0-0.21,0,True,True,3,,True,True,False,True,True,False,5,5,0,6,0,,,1,,,,,,,,,images/1 (1311).jpg,B,B,,22,22,0,,100896,,,initial_study,1,1,0,295,13451,,0.23,332,image-keyboard-response,1,1,0,"current target, not in next trial",,,,2562
100896,fjfnrgx7iVRIoak48KKX,No,,0,False,,,2,r,,,,,,T_nontarget,3,,,,,1728,100896,1 (443).jpg,0.0-8.0-2.0-0.19,0,False,True,3,,True,True,False,False,False,False,4,4,0,,0,,,1,,,,,,,,,images/1 (443).jpg,A,A,,20,20,0,,100896,,,initial_study,0,0,0,0,12217,,0.21,254,image-keyboard-response,1,0,0,"studied only, not in trial",,,,2562
100896,gLgSonFF7QpBp8wPev7Y,No,0,0,True,,,2,r,False,False,False,,j,T_target,3,,,,,1728,100896,1 (221).jpg,0.0-5.0-10.0-0.13,0,True,True,3,False,True,True,False,True,True,True,1,1,2,,0,,,1,,,,0,,,,,images/1 (221).jpg,Dn+1,Dn,,7,7,0,,100896,,,initialTest_response,14,14,25,150,9156,,0.16,64,image-keyboard-response,1,1,1,"current target, in next trial",,,,2562
100896,gZCFBytuKTTJYSORB8wN,No,,0,False,,,2,r,,,,,,T_target,3,,,,,1728,100896,1 (127).jpg,0.0-6.0-2.0-0.22,0,True,True,3,,True,True,False,True,True,False,2,2,0,5,0,,,1,,,,,,,,,images/1 (127).jpg,B,B,,23,23,0,,100896,,,initial_study,12,12,0,226,9817,,0.17,105,image-keyboard-response,1,1,0,"current target, not in next trial",,,,2562
100896,gbwU55w8X4oyBXxP73cK,No,,0,False,,,2,r,,,,,,T_nontarget,3,,,,,1728,100896,1 (1517).jpg,0.0-9.0-2.0-0.19,0,False,True,3,,True,True,False,False,False,False,5,5,0,,0,,,1,,,,,,,,,images/1 (1517).jpg,A,A,,20,20,0,,100896,,,initial_study,0,0,0,0,13428,,0.23,330,image-keyboard-response,1,0,0,"studied only, not in trial",,,,2562
100896,giS4hnOKq6j5M8nkVZ37,No,,0,,,,2,r,,,,,,,3,,,,,1728,100896,,0.0-7.0-9.0-0.0,0,,,3,,,,,,,,,,,,,,,,,,,,,,,,"<div style=""font-size:60px;"">+</div>",,,,,,,,100896,,,fixation,,,,,11296,,0.19,202,html-keyboard-response,,,,,,,,2562
100896,goRDYbBx4qz3yKwqbqy3,No,,0,False,,,2,r,,,,,,T_nontarget,3,,,,,1728,100896,1 (2125).jpg,0.0-9.0-2.0-0.6,0,True,True,3,,True,True,False,False,False,False,5,5,0,2,0,,,1,,,,,,,,,images/1 (2125).jpg,A,A,,7,7,0,,100896,,,initial_study,0,0,0,84,13272,,0.23,317,image-keyboard-response,1,0,0,"studied only, not in trial",,,,2562
100896,hQ8PqU37vf1swbS5jA8U,No,,0,,,,2,r,,,,,,,3,,,,,1306,100896,,0.0-1.0,0,,,3,,,,,,,,,,,,,,,,,,,,{'Q0': '100896'},,2480,,,,,,,,,,100896,,,enterid,,,,,2946,,0.05,1,survey-text,,,,,,,,885
100896,hVfYWQCIC1FBwHv4cda8,No,0,0,True,,,2,r,False,False,False,,j,T_target,3,,,,,1728,100896,1 (1815).jpg,0.0-5.0-10.0-0.3,0,True,True,3,False,True,True,False,True,True,True,1,1,2,,0,,,1,,,,0,,,,,images/1 (1815).jpg,Dn+1,Dn,,28,28,0,,100896,,,initialTest_response,4,4,30,223,8927,,0.15,54,image-keyboard-response,1,1,1,"current target, in next trial",,,,2562
100896,hkNgZQ3bSIZCGTzgmU5w,No,,0,True,,,2,r,,,,,,T_target,3,,,,,1728,100896,1 (1815).jpg,0.0-5.0-2.0-0.27,0,True,True,3,,True,True,False,True,True,True,1,1,2,5,0,,,1,,,,,,,,,images/1 (1815).jpg,Dn+1,Dn,,28,28,0,,100896,,,initial_study,4,4,30,223,8667,,0.15,34,image-keyboard-response,1,1,1,"current target, in next trial",,,,2562
100896,hwwfKTFOUR7TNZYLMdYY,No,,0,,,,2,r,,,,,,,3,,,,,1728,100896,,0.0-5.0-4.0-0.0,0,,,3,,,,,,,,,,,,,,,,,,,,,,,,"<div style=""font-size:60px;"">+</div>",,,,,,,,100896,,,fixation,,,,,8712,,0.15,38,html-keyboard-response,,,,,,,,2562
100896,i1o1suyvVRmxxhuktsKJ,No,0,0,True,,,2,r,False,False,False,,f,T_foil,3,,,,,1728,100896,1 (2126).jpg,0.0-7.0-10.0-0.26,0,True,True,3,False,False,False,False,True,True,True,3,3,4,6,0,,,1,,,,0,,,,,images/1 (2126).jpg,Fnn+1,Fnn,,0,0,0,,100896,,,initialTest_response,27,27,24,298,11878,,0.20,229,image-keyboard-response,0,1,1,"tested only, in next trial",,,,2562
100896,i9HGiVG8CwXJdCzgpQOo,No,0,0,False,,,2,r,False,False,,,f,T_foil,3,,,,,1728,100896,1 (2361).jpg,0.0-8.0-10.0-0.2,0,False,True,3,False,False,False,False,True,True,False,4,4,False,,0,,,1,,,,0,,,,,images/1 (2361).jpg,Fn+1,Fn,,0,0,0,,100896,,,initialTest_response,3,3,0,0,12544,,0.21,281,image-keyboard-response,0,1,0,"tested only, not in next trial",,,,2562
100896,iK3Oo0YqIN9W8YunpvET,No,0,0,False,,,2,r,False,False,,,j,T_target,3,,,,,1728,100896,1 (1027).jpg,0.0-5.0-10.0-0.22,0,True,True,3,False,True,True,False,True,True,False,1,1,False,,0,,,1,,,,0,,,,,images/1 (1027).jpg,B,B,,3,3,0,,100896,,,initialTest_response,23,23,0,117,9354,,0.16,73,image-keyboard-response,1,1,0,"current target, not in next trial",,,,2562
100896,iWroii0kDlpzrUZvcxwq,No,,0,,,,2,r,,,,,,,3,,,,,1728,100896,,0.0-7.0-5.0-0.5,0,,,3,,,,,,,,3,,,,,,,,,6,,,,,,,5,,,5,,,,,100896,,57,digitPresentation,,,,,11224,,0.19,196,html-keyboard-response,,,,,,,,2562
100896,idKcGizkXs0G3G9caL34,No,,0,,,,2,r,,,,,,,3,,,,,1728,100896,,0.0-7.0-7.0-0.0,0,,,3,,,,,,,,,,,,,,,,,,,,,,,,<p background:white>INCORRECT!</p>,,,,,,,,100896,,,promptfeedback,,,,,11273,,0.19,200,html-keyboard-response,,,,,,,,2562
100896,igDiR0wJJK1n4w6im4DM,No,0,0,True,,,2,r,False,,False,,f,T_foil,3,,,,,1728,100896,1 (917).jpg,0.0-6.0-10.0-0.19,0,True,False,3,False,False,True,False,True,False,True,2,1,2,,0,,,2,,,,0,,,,,images/1 (917).jpg,Cn,Cn,,0,5,0,,100896,,,initialTest_response,20,0,20,265,10516,,0.18,146,image-keyboard-response,1,0,1,"studied only, in next trial, from last trial",,,,2562
100896,igTcupgpkm6WTURtooTa,No,0,0,True,,,2,r,False,,False,,f,T_foil,3,,,,,1728,100896,1 (2401).jpg,0.0-7.0-10.0-0.2,0,True,False,3,False,False,True,False,True,False,True,3,2,3,,0,,,2,,,,0,,,,,images/1 (2401).jpg,Cn,Cn,,0,9,0,,100896,,,initialTest_response,3,0,3,364,11351,,0.19,205,image-keyboard-response,1,0,1,"studied only, in next trial, from last trial",,,,2562
100896,jHRBdwHFfDrjuJcfrRXX,No,,0,True,,,2,r,,,,,,T_target,3,,,,,1728,100896,1 (2109).jpg,0.0-6.0-2.0-0.14,0,True,True,3,,True,True,False,True,True,True,2,2,3,9,0,,,1,,,,,,,,,images/1 (2109).jpg,Dn+1,Dn,,15,15,0,,100896,,,initial_study,21,21,15,397,9725,,0.17,97,image-keyboard-response,1,1,1,"current target, in next trial",,,,2562
100896,jKmFjwq3IS5aeqKuYiKi,No,,0,False,,,2,r,,,,,,T_target,3,,,,,1728,100896,1 (1030).jpg,0.0-5.0-2.0-0.1,0,True,True,3,,True,True,False,True,True,False,1,1,0,5,0,,,1,,,,,,,,,images/1 (1030).jpg,B,B,,2,2,0,,100896,,,initial_study,12,12,0,218,8367,,0.14,8,image-keyboard-response,1,1,0,"current target, not in next trial",,,,2562
100896,jeNPvpmCZWOnBgojJRGX,No,0,0,True,,,2,r,False,False,False,,f,T_foil,3,,,,,1728,100896,1 (74).jpg,0.0-7.0-10.0-0.25,0,True,True,3,False,False,False,False,True,True,True,3,3,4,7,0,,,1,,,,0,,,,,images/1 (74).jpg,Fnn+1,Fnn,,0,0,0,,100896,,,initialTest_response,26,26,6,306,11857,,0.20,228,image-keyboard-response,0,1,1,"tested only, in next trial",,,,2562
100896,jtvjn96b8nV7s29wK2hK,No,,0,False,,,2,r,,,,,,T_target,3,,,,,1728,100896,1 (2348).jpg,0.0-5.0-2.0-0.14,0,False,True,3,,True,True,False,True,True,False,1,1,0,,0,,,1,,,,,,,,,images/1 (2348).jpg,B,B,,15,15,0,,100896,,,initial_study,19,19,0,0,8518,,0.15,21,image-keyboard-response,1,1,0,"current target, not in next trial",,,,2562
100896,kOhJTFcGCEQZ9rFlmbYu,No,,0,False,,,2,r,,,,,,T_target,3,,,,,1728,100896,1 (1469).jpg,0.0-7.0-2.0-0.10,0,False,True,3,,True,True,False,True,True,False,3,3,0,,0,,,1,,,,,,,,,images/1 (1469).jpg,B,B,,11,11,0,,100896,,,initial_study,6,6,0,0,10907,,0.19,169,image-keyboard-response,1,1,0,"current target, not in next trial",,,,2562
100896,kfBiiUFNEadImAzAsNjj,No,0,0,False,,,2,r,False,False,,,j,T_target,3,,,,,1728,100896,1 (2387).jpg,0.0-6.0-10.0-0.9,0,False,True,3,False,True,True,False,True,True,False,2,2,False,,0,,,1,,,,0,,,,,images/1 (2387).jpg,B,B,,25,25,0,,100896,,,initialTest_response,10,10,0,0,10283,,0.18,136,image-keyboard-response,1,1,0,"current target, not in next trial",,,,2562
100896,kknbcnVPRAs6kvbEKXfl,No,,0,False,,,2,r,,,,,,T_target,3,,,,,1728,100896,1 (494).jpg,0.0-6.0-2.0-0.0,0,True,True,3,,True,True,False,True,True,False,2,2,0,6,0,,,1,,,,,,,,,images/1 (494).jpg,B,B,,1,1,0,,100896,,,initial_study,26,26,0,274,9556,,0.16,83,image-keyboard-response,1,1,0,"current target, not in next trial",,,,2562
100896,kkyyN7XBWaEXHkMl10Na,No,0,0,True,,,2,r,False,False,False,,j,T_target,3,,,,,1728,100896,1 (1148).jpg,0.0-8.0-10.0-0.17,0,False,True,3,False,True,True,False,True,True,True,4,4,5,,0,,,1,,,,0,,,,,images/1 (1148).jpg,Dn+1,Dn,,16,16,0,,100896,,,initialTest_response,18,18,25,0,12882,,0.22,296,image-keyboard-response,1,1,1,"current target, in next trial",,,,2562
100896,l7nFerBAn9MSCOtpKe3g,No,,0,False,,,2,r,,,,,,T_target,3,,,,,1728,100896,1 (168).jpg,0.0-8.0-2.0-0.4,0,False,True,3,,True,True,False,True,True,False,4,4,0,,0,,,1,,,,,,,,,images/1 (168).jpg,B,B,,5,5,0,,100896,,,initial_study,23,23,0,0,12042,,0.21,239,image-keyboard-response,1,1,0,"current target, not in next trial",,,,2562
100896,lFEDgegvwKSpAieVImZe,No,,0,True,,,2,r,,,,,,T_target,3,,,,,1728,100896,1 (2242).jpg,0.0-9.0-2.0-0.12,0,True,True,3,,True,True,False,True,True,True,5,5,6,3,0,,,1,,,,,,,,,images/1 (2242).jpg,Dn+1,Dn,,13,13,0,,100896,,,initial_study,3,3,7,123,13342,,0.23,323,image-keyboard-response,1,1,1,"current target, in next trial",,,,2562
100896,lPS2WKuNmtWblAhm5Lf5,No,0,0,False,,,2,r,False,False,,,j,T_target,3,,,,,1728,100896,1 (408).jpg,0.0-5.0-10.0-0.15,0,True,True,3,False,True,True,False,True,True,False,1,1,False,,0,,,1,,,,0,,,,,images/1 (408).jpg,B,B,,12,12,0,,100896,,,initialTest_response,16,16,0,338,9201,,0.16,66,image-keyboard-response,1,1,0,"current target, not in next trial",,,,2562
100896,ldNK2IuFoCjZMfXFWdpR,No,0,0,True,,,2,r,False,,False,,f,T_foil,3,,,,,1728,100896,1 (2314).jpg,0.0-7.0-10.0-0.23,0,False,False,3,False,False,True,False,True,False,True,3,2,3,,0,,,2,,,,0,,,,,images/1 (2314).jpg,Cn,Cn,,0,11,0,,100896,,,initialTest_response,24,0,24,0,11814,,0.20,226,image-keyboard-response,1,0,1,"studied only, in next trial, from last trial",,,,2562
100896,ldslwGoI1ZltwZRom0Vu,No,,0,False,,,2,r,,,,,,T_target,3,,,,,1728,100896,1 (295).jpg,0.0-6.0-2.0-0.6,0,True,True,3,,True,True,False,True,True,False,2,2,0,1,0,,,1,,,,,,,,,images/1 (295).jpg,B,B,,7,7,0,,100896,,,initial_study,24,24,0,10,9625,,0.17,89,image-keyboard-response,1,1,0,"current target, not in next trial",,,,2562
100896,lq3MCR6K8BKND20GrEFA,No,0,0,False,,,2,r,False,False,,,f,T_foil,3,,,,,1728,100896,1 (342).jpg,0.0-5.0-10.0-0.2,0,False,True,3,False,False,False,False,True,True,False,1,1,False,,0,,,1,,,,0,,,,,images/1 (342).jpg,Fn+1,Fn,,0,0,0,,100896,,,initialTest_response,3,3,0,0,8904,,0.15,53,image-keyboard-response,0,1,0,"tested only, not in next trial",,,,2562
100896,m2jwSwXRaQcX7EXYoxwz,No,,0,False,,,2,r,,,,,,T_target,3,,,,,1728,100896,1 (980).jpg,0.0-8.0-2.0-0.22,0,True,True,3,,True,True,False,True,True,False,4,4,0,5,0,,,1,,,,,,,,,images/1 (980).jpg,B,B,,23,23,0,,100896,,,initial_study,20,20,0,205,12251,,0.21,257,image-keyboard-response,1,1,0,"current target, not in next trial",,,,2562
100896,m6AGiiG0R3X6ULQBYhKN,No,0,0,False,,,2,r,False,False,,,j,T_target,3,,,,,1728,100896,1 (653).jpg,0.0-8.0-10.0-0.6,0,False,True,3,False,True,True,False,True,True,False,4,4,False,,0,,,1,,,,0,,,,,images/1 (653).jpg,B,B,,9,9,0,,100896,,,initialTest_response,7,7,0,0,12634,,0.22,285,image-keyboard-response,1,1,0,"current target, not in next trial",,,,2562
100896,m9nLNsLjP8vPFMDDYWA7,No,0,0,False,,,2,r,False,False,,,f,T_foil,3,,,,,1728,100896,1 (2068).jpg,0.0-5.0-10.0-0.12,0,True,True,3,False,False,False,False,True,True,False,1,1,False,5,0,,,1,,,,0,,,,,images/1 (2068).jpg,Fn+1,Fn,,0,0,0,,100896,,,initialTest_response,13,13,0,211,9134,,0.16,63,image-keyboard-response,0,1,0,"tested only, not in next trial",,,,2562
100896,maqRTtSvm3LEpLUTtKWt,No,,0,False,,,2,r,,,,,,T_nontarget,3,,,,,1728,100896,1 (877).jpg,0.0-6.0-2.0-0.5,0,True,True,3,,True,True,False,False,False,False,2,2,0,2,0,,,1,,,,,,,,,images/1 (877).jpg,A,A,,6,6,0,,100896,,,initial_study,0,0,0,85,9613,,0.17,88,image-keyboard-response,1,0,0,"studied only, not in trial",,,,2562
100896,mkBYBawaOuTCgvXSe2P1,No,0,0,False,,,2,r,False,False,,,j,T_target,3,,,,,1728,100896,1 (403).jpg,0.0-8.0-10.0-0.28,0,True,True,3,False,True,True,False,True,True,False,4,4,False,,0,,,1,,,,0,,,,,images/1 (403).jpg,B,B,,25,25,0,,100896,,,initialTest_response,29,29,0,454,13131,,0.22,307,image-keyboard-response,1,1,0,"current target, not in next trial",,,,2562
100896,mrq9K22SUTysNw7QefBf,No,0,0,False,,,2,r,False,False,,,j,T_target,3,,,,,1728,100896,1 (2283).jpg,0.0-7.0-10.0-0.22,0,False,True,3,False,True,True,False,True,True,False,3,3,False,,0,,,1,,,,0,,,,,images/1 (2283).jpg,B,B,,22,22,0,,100896,,,initialTest_response,23,23,0,0,11793,,0.20,225,image-keyboard-response,1,1,0,"current target, not in next trial",,,,2562
100896,mrv9hJvhvpeupWtry5VQ,No,,0,True,,,2,r,,,,,,T_target,3,,,,,1728,100896,1 (1346).jpg,0.0-7.0-2.0-0.20,0,False,True,3,,True,True,False,True,True,True,3,3,4,,0,,,1,,,,,,,,,images/1 (1346).jpg,Dn+1,Dn,,21,21,0,,100896,,,initial_study,7,7,15,0,11022,,0.19,179,image-keyboard-response,1,1,1,"current target, in next trial",,,,2562
100896,n0aqGUokSbDEHXNqHzrJ,No,0,0,True,,,2,r,False,False,False,,f,T_foil,3,,,,,1728,100896,1 (1851).jpg,0.0-7.0-10.0-0.13,0,True,False,3,False,False,False,False,True,False,True,3,2,3,,0,,,2,,,,0,,,,,images/1 (1851).jpg,Fnn,Fnn,,0,0,0,,100896,,,initialTest_response,14,0,14,175,11596,,0.20,216,image-keyboard-response,0,1,1,"tested only, in next trial, from last trial",,,,2562
100896,n1rXE4oFpKgKfDnBFHPQ,No,,0,False,,,2,r,,,,,,T_nontarget,3,,,,,1728,100896,1 (218).jpg,0.0-8.0-2.0-0.23,0,False,True,3,,True,True,False,False,False,False,4,4,0,,0,,,1,,,,,,,,,images/1 (218).jpg,A,A,,24,24,0,,100896,,,initial_study,0,0,0,0,12262,,0.21,258,image-keyboard-response,1,0,0,"studied only, not in trial",,,,2562
100896,nCGQQIeAvPM2Tthpqkzl,No,,0,False,,,2,r,,,,,,T_nontarget,3,,,,,1728,100896,1 (1578).jpg,0.0-6.0-2.0-0.3,0,True,True,3,,True,True,False,False,False,False,2,2,0,9,0,,,1,,,,,,,,,images/1 (1578).jpg,A,A,,4,4,0,,100896,,,initial_study,0,0,0,399,9590,,0.17,86,image-keyboard-response,1,0,0,"studied only, not in trial",,,,2562
100896,nOzY9aN52xWFXpkOmjJO,No,,0,False,,,2,r,,,,,,T_nontarget,3,,,,,1728,100896,1 (847).jpg,0.0-6.0-2.0-0.19,0,False,True,3,,True,True,False,False,False,False,2,2,0,,0,,,1,,,,,,,,,images/1 (847).jpg,A,A,,20,20,0,,100896,,,initial_study,0,0,0,0,9781,,0.17,102,image-keyboard-response,1,0,0,"studied only, not in trial",,,,2562
100896,nT4f2gnva2sPulKqXjX3,No,0,0,False,,,2,r,False,False,,,j,T_target,3,,,,,1728,100896,1 (1727).jpg,0.0-8.0-10.0-0.7,0,True,True,3,False,True,True,False,True,True,False,4,4,False,,0,,,1,,,,0,,,,,images/1 (1727).jpg,B,B,,1,1,0,,100896,,,initialTest_response,8,8,0,300,12657,,0.22,286,image-keyboard-response,1,1,0,"current target, not in next trial",,,,2562
100896,nfBXN0Gmd9NWxiHXm9Hm,No,,0,,,,2,r,,,,,,,3,,,,,1728,100896,,0.0-7.0-5.0-0.2,0,,,3,,,,,,,,3,,,,,,,,,3,,,,,,,6,,,6,,,,,100896,,57,digitPresentation,,,,,11190,,0.19,193,html-keyboard-response,,,,,,,,2562
100896,nrM5fqX4d1lBlu6vN7fX,No,,0,False,,,2,r,,,,,,T_target,3,,,,,1728,100896,1 (1438).jpg,0.0-9.0-2.0-0.8,0,True,True,3,,True,True,False,True,True,False,5,5,0,5,0,,,1,,,,,,,,,images/1 (1438).jpg,B,B,,9,9,0,,100896,,,initial_study,21,21,0,243,13296,,0.23,319,image-keyboard-response,1,1,0,"current target, not in next trial",,,,2562
100896,ntAKq3SFE4pFFXePQf0i,No,0,0,False,,,2,r,False,False,,,j,T_target,3,,,,,1728,100896,1 (2217).jpg,0.0-5.0-10.0-0.24,0,False,True,3,False,True,True,False,True,True,False,1,1,False,,0,,,1,,,,0,,,,,images/1 (2217).jpg,B,B,,6,6,0,,100896,,,initialTest_response,25,25,0,0,9398,,0.16,75,image-keyboard-response,1,1,0,"current target, not in next trial",,,,2562
100896,o550xGgC6dFmbafL4GA6,No,,0,,,,2,r,False,,,57,,,3,,,,,1728,100896,,0.0-8.0-6.0-0.0-0.0,0,,,3,,,,,,,,,,,,,,,,,,,,"{'answer': 'Skipped after 0.01 seconds', 'question': ""Please enter the sum using your number keyboard <p>Press 'enter' to continue.</p>""}",Please enter the sum using your number keyboard <p>Press 'enter' to continue.</p>,,,,,,,,,,,100896,,,answer_counting,,,,,12455,,0.21,275,survey-text,,,,,,,,2562
100896,o5pcuhwuyJDBCb0p6MFF,No,0,0,False,,,2,r,False,False,,,j,T_target,3,,,,,1728,100896,1 (1479).jpg,0.0-7.0-10.0-0.12,0,True,True,3,False,True,True,False,True,True,False,3,3,False,,0,,,1,,,,0,,,,,images/1 (1479).jpg,B,B,,16,16,0,,100896,,,initialTest_response,13,13,0,166,11574,,0.20,215,image-keyboard-response,1,1,0,"current target, not in next trial",,,,2562
100896,oGguOmRTJDvvkdhrL9vJ,No,0,0,False,,,2,r,False,False,,,j,T_target,3,,,,,1728,100896,1 (2014).jpg,0.0-7.0-10.0-0.21,0,True,True,3,False,True,True,False,True,True,False,3,3,False,,0,,,1,,,,0,,,,,images/1 (2014).jpg,B,B,,7,7,0,,100896,,,initialTest_response,22,22,0,225,11773,,0.20,224,image-keyboard-response,1,1,0,"current target, not in next trial",,,,2562
100896,oRSvNQfXi6oMh8Ad9VNr,No,0,0,False,,,2,r,False,False,,,f,T_foil,3,,,,,1728,100896,1 (721).jpg,0.0-5.0-10.0-0.9,0,True,True,3,False,False,False,False,True,True,False,1,1,False,1,0,,,1,,,,0,,,,,images/1 (721).jpg,Fn+1,Fn,,0,0,0,,100896,,,initialTest_response,10,10,0,32,9068,,0.16,60,image-keyboard-response,0,1,0,"tested only, not in next trial",,,,2562
100896,osfumomfymwrDBYdLPQN,No,,0,False,,,2,r,,,,,,T_nontarget,3,,,,,1728,100896,1 (1586).jpg,0.0-7.0-2.0-0.25,0,True,True,3,,True,True,False,False,False,False,3,3,0,7,0,,,1,,,,,,,,,images/1 (1586).jpg,A,A,,26,26,0,,100896,,,initial_study,0,0,0,328,11079,,0.19,184,image-keyboard-response,1,0,0,"studied only, not in trial",,,,2562
100896,oyaCaMZUgpu7BYqDDSLj,No,0,0,True,,,2,r,False,False,False,,j,T_target,3,,,,,1728,100896,1 (360).jpg,0.0-5.0-10.0-0.1,0,False,True,3,False,True,True,False,True,True,True,1,1,2,,0,,,1,,,,0,,,,,images/1 (360).jpg,Dn+1,Dn,,9,9,0,,100896,,,initialTest_response,2,2,27,0,8882,,0.15,52,image-keyboard-response,1,1,1,"current target, in next trial",,,,2562
100896,pBhSZLucDNn5vkHvhfpd,No,,0,,,,2,r,,,,,,,3,,,,,1728,100896,,0.0-8.0-5.0-0.2,0,,,3,,,,,,,,4,,,,,,,,,3,,,,,,,6,,,6,,,,,100896,,57,digitPresentation,,,,,12387,,0.21,269,html-keyboard-response,,,,,,,,2562
100896,pshBIAygGlwuUrfsY8XW,No,,0,,,,2,r,,,,,,,3,,,,,1728,100896,,0.0-8.0-5.0-0.5,0,,,3,,,,,,,,4,,,,,,,,,6,,,,,,,9,,,9,,,,,100896,,57,digitPresentation,,,,,12422,,0.21,272,html-keyboard-response,,,,,,,,2562
100896,qBsZ0e8csvgk6VZltkgB,No,,0,False,,,2,r,,,,,,T_nontarget,3,,,,,1728,100896,1 (2013).jpg,0.0-8.0-2.0-0.18,0,True,True,3,,True,True,False,False,False,False,4,4,0,9,0,,,1,,,,,,,,,images/1 (2013).jpg,A,A,,19,19,0,,100896,,,initial_study,0,0,0,408,12205,,0.21,253,image-keyboard-response,1,0,0,"studied only, not in trial",,,,2562
100896,qHL9gAcYvjdYfaYMQbKx,No,,0,False,,,2,r,,,,,,T_nontarget,3,,,,,1728,100896,1 (172).jpg,0.0-7.0-2.0-0.4,0,True,True,3,,True,True,False,False,False,False,3,3,0,3,0,,,1,,,,,,,,,images/1 (172).jpg,A,A,,5,5,0,,100896,,,initial_study,0,0,0,130,10838,,0.19,163,image-keyboard-response,1,0,0,"studied only, not in trial",,,,2562
100896,qSS3aRDJrI4l7INdjZAo,No,,0,False,,,2,r,,,,,,T_nontarget,3,,,,,1728,100896,1 (1862).jpg,0.0-9.0-2.0-0.2,0,True,True,3,,True,True,False,False,False,False,5,5,0,1,0,,,1,,,,,,,,,images/1 (1862).jpg,A,A,,3,3,0,,100896,,,initial_study,0,0,0,46,13227,,0.23,313,image-keyboard-response,1,0,0,"studied only, not in trial",,,,2562
100896,qk7EafIgE9ppx00Or1re,No,,0,False,,,2,r,,,,,,T_nontarget,3,,,,,1728,100896,1 (2280).jpg,0.0-7.0-2.0-0.27,0,False,True,3,,True,True,False,False,False,False,3,3,0,,0,,,1,,,,,,,,,images/1 (2280).jpg,A,A,,28,28,0,,100896,,,initial_study,0,0,0,0,11107,,0.19,186,image-keyboard-response,1,0,0,"studied only, not in trial",,,,2562
100896,qs8NReJcpC77xOYDmhcX,No,0,0,False,,,2,r,False,False,,,j,T_target,3,,,,,1728,100896,1 (2369).jpg,0.0-6.0-10.0-0.22,0,False,True,3,False,True,True,False,True,True,False,2,2,False,,0,,,1,,,,0,,,,,images/1 (2369).jpg,B,B,,12,12,0,,100896,,,initialTest_response,23,23,0,0,10586,,0.18,149,image-keyboard-response,1,1,0,"current target, not in next trial",,,,2562
100896,qy6h0eXRCzdzfwqbvJGv,No,,0,False,,,2,r,,,,,,T_nontarget,3,,,,,1728,100896,1 (660).jpg,0.0-8.0-2.0-0.17,0,True,True,3,,True,True,False,False,False,False,4,4,0,9,0,,,1,,,,,,,,,images/1 (660).jpg,A,A,,18,18,0,,100896,,,initial_study,0,0,0,442,12194,,0.21,252,image-keyboard-response,1,0,0,"studied only, not in trial",,,,2562
100896,r3OQnYcOh4TSC2VbKb3J,No,0,0,False,,,2,r,False,False,,,j,T_target,3,,,,,1728,100896,1 (1251).jpg,0.0-8.0-10.0-0.4,0,True,True,3,False,True,True,False,True,True,False,4,4,False,,0,,,1,,,,0,,,,,images/1 (1251).jpg,B,B,,13,13,0,,100896,,,initialTest_response,5,5,0,121,12589,,0.22,283,image-keyboard-response,1,1,0,"current target, not in next trial",,,,2562
100896,r4IW3Ix9gjtNrBlz1yHk,No,0,0,True,,,2,r,False,False,False,,f,T_foil,3,,,,,1728,100896,1 (2176).jpg,0.0-7.0-10.0-0.16,0,False,False,3,False,False,True,False,True,True,True,3,2,3,,0,,,2,,,,0,,,,,images/1 (2176).jpg,Dn,Dn,,0,5,0,,100896,,,initialTest_response,17,5,17,0,11662,,0.20,219,image-keyboard-response,1,1,1,"current target, in next trial, from last trial",,,,2562
100896,rAAe5D0TRNoFxbtElVM9,No,,0,False,,,2,r,,,,,,T_nontarget,3,,,,,1728,100896,1 (1300).jpg,0.0-9.0-2.0-0.3,0,True,True,3,,True,True,False,False,False,False,5,5,0,6,0,,,1,,,,,,,,,images/1 (1300).jpg,A,A,,4,4,0,,100896,,,initial_study,0,0,0,291,13238,,0.23,314,image-keyboard-response,1,0,0,"studied only, not in trial",,,,2562
