parent_document_id,document_id,HaveSeenImages,accumulated_accuracy,all_accumulated_accuracy,anRepeatedItem,browser,browser_version,codeversion,condition,correct,correct_appear1,correct_appear2,correct_response,correct_response_key,current_assignmentTypesWithinList,designversion,fullscreen,height,id,id_picName,internal_node_id,is_changedfullscreen,is_chosenFinal,is_currentObjAppear1,is_finished,is_old,is_studied_appear0_initial,is_studied_appear1_initial,is_studied_appear2_initial,is_tested_appear0_initial,is_tested_appear1_initial,is_tested_appear2_initial,listNum_appear0_initial,listNum_appear1_initial,listNum_appear2_initial,listNum_infinalOrder,listNum_pickedFrom,microphone,mobile,num_CurrObjAppear,os,presPos_digit,question_order,recognition_correct,response,responsesum,rt,session_id,stimulus,stimulusConditionName_nPlusOneTrial,stimulusConditions,stimulus_id,studyPos_appear0_initial,studyPos_appear1_initial,studyPos_appear2_initial,study_id,subject_id,success,sum_currList,task,testPos_appear0_initial,testPos_appear1_initial,testPos_appear2_initial,testPos_final,time_elapsed,timepassed_mins,trial_index,trial_type,type_code_studiedCurr,type_code_testiedCurr,type_code_testiedNext,type_comment,vsync_rate,webaudio,webcam,width
dte,00BVXXnxVPOVXPFRPwSz,,0,,,,,2,r,False,,,,f,F,3,,1306,dte,1 (2072).jpg,0.0-23.0-1.0-0.5,1,True,,0,False,,False,False,,False,False,,0,0,8,0,,,1,,,,0,,,,,images/1 (2072).jpg,,FF,,,0,0,,dte,,,finalTest,,0,0,354,28883,0.48,1119,image-keyboard-response,,,,final Foil,,,,885
dte,01tVdYQd4d66kSaxQzaw,,0,,,,,2,r,False,,,,j,T_nontarget,3,,1306,dte,1 (924).jpg,0.0-16.0-1.0-0.41,1,True,,0,True,,True,False,,False,False,,5,0,1,0,,,,,,,0,,,,,images/1 (924).jpg,,A,,,22,0,,dte,,,finalTest,,0,0,42,25087,0.42,807,image-keyboard-response,,,,"studied only, not in trial",,,,885
dte,02XwtOXOtmDqRdh741Y8,,0,,,,,2,r,False,False,,,j,T_foil,3,,1306,dte,1 (915).jpg,0.0-16.0-1.0-0.14,1,True,,0,True,,False,False,,True,False,,10,0,1,10,,,,,,,0,,,,,images/1 (915).jpg,,Fnn,,,0,0,,dte,,,finalTest,,4,0,15,24771,0.41,780,image-keyboard-response,,,,"tested only, in next trial",,,,885
dte,05IUgFs1Stk5crTyrzyX,,0,,,,,2,r,False,,,,j,T_target,3,,1306,dte,1 (1675).jpg,0.0-16.0-1.0-0.47,1,True,,0,True,,True,False,,True,False,,10,0,1,0,,,,,,,0,,,,,images/1 (1675).jpg,,B,,,30,0,,dte,,,finalTest,,17,0,48,25174,0.42,813,image-keyboard-response,,,,"current target, not in next trial",,,,885
dte,0DrQMZIMhVVOcK1BXR7q,,,,False,,,2,r,,,,,,T_nontarget,3,,1306,dte,1 (1408).jpg,0.0-8.0-2.0-0.23,1,True,True,0,,True,True,False,False,False,False,4,4,0,4,0,,,1,,,,,,,,,images/1 (1408).jpg,A,A,,24,24,0,,dte,,,initial_study,0,0,0,192,16296,0.27,258,image-keyboard-response,1,0,0,"studied only, not in trial",,,,885
dte,0F9VKlZezHLIbCvjyyIg,,,,,,,2,r,,,,,,,3,,1306,dte,,0.0-10.0-7.0-0.0,1,,,0,,,,,,,,,,,,,,,,,,,,,,,,<p background:white>INCORRECT!</p>,,,,,,,,dte,,,promptfeedback,,,,,18913,0.32,428,html-keyboard-response,,,,,,,,885
dte,0NvKf9SMVqZ8IaDkUfxa,,,,,,,2,r,,,,,,,3,,1306,dte,,0.0-6.0-5.0-0.7,1,,,0,,,,,,,,2,,,,,,,,,8,,,,,,,9,,,9,,,,,dte,,63,digitPresentation,,,,,14076,0.24,122,html-keyboard-response,,,,,,,,885
dte,0OJlnvLjLjhT6TaFpwqR,,,,,,,2,r,,,,,,,3,,1306,dte,,0.0-7.0-0.0-0.0,1,,,0,,,,,,,,,,,,,,,,,,,,,,,,"
    <p style='text-align: justify;color: black;background: white;font: caption-;''>
        Press the 'enter' key to see the next list of pictures. </p>
    ",,,,,,,,dte,,,,,,,,14797,0.25,157,html-keyboard-response,,,,,,,,885
dte,0QfTbVoHwnVpdSg32W1u,,,,False,,,2,r,,,,,,T_nontarget,3,,1306,dte,1 (1253).jpg,0.0-5.0-2.0-0.22,1,True,True,0,,True,True,False,False,False,False,1,1,0,3,0,,,1,,,,,,,,,images/1 (1253).jpg,A,A,,23,23,0,,dte,,,initial_study,0,0,0,117,12573,0.21,29,image-keyboard-response,1,0,0,"studied only, not in trial",,,,1395
dte,0amrzfsHPncKQIs441sD,,0,,False,,,2,r,False,False,,,j,T_target,3,,1306,dte,1 (2125).jpg,0.0-11.0-10.0-0.9,1,True,True,0,False,True,True,False,True,True,False,7,7,False,,0,,,1,,,,0,,,,,images/1 (2125).jpg,B,B,,8,8,0,,dte,,,initialTest_response,10,10,0,282,20365,0.34,516,image-keyboard-response,1,1,0,"current target, not in next trial",,,,885
dte,0f1GK8IEwEnA7QyWQOqO,,0,,,,,2,r,False,,,,f,F,3,,1306,dte,1 (2292).jpg,0.0-22.0-1.0-0.44,1,True,,0,False,,False,False,,False,False,,0,0,7,0,,,1,,,,0,,,,,images/1 (2292).jpg,,FF,,,0,0,,dte,,,finalTest,,0,0,345,28772,0.48,1110,image-keyboard-response,,,,final Foil,,,,885
dte,0fFbGTDmTCri6g2tAIUc,,,,False,,,2,r,,,,,,T_target,3,,1306,dte,1 (1779).jpg,0.0-9.0-2.0-0.14,1,False,True,0,,True,True,False,True,True,False,5,5,0,,0,,,1,,,,,,,,,images/1 (1779).jpg,B,B,,15,15,0,,dte,,,initial_study,26,26,0,0,17404,0.29,325,image-keyboard-response,1,1,0,"current target, not in next trial",,,,885
dte,0oTyJeRolk8kwpaa93cD,,0,,,,,2,r,False,,,,f,F,3,,1306,dte,1 (925).jpg,0.0-16.0-1.0-0.27,1,True,,0,False,,False,False,,False,False,,0,0,1,4,,,1,,,,0,,,,,images/1 (925).jpg,,FF,,,0,0,,dte,,,finalTest,,0,0,28,24930,0.42,793,image-keyboard-response,,,,final Foil,,,,885
dte,0peYATBQhp9TcvyCjP2N,,0,,,,,2,r,False,False,False,,j,T_target,3,,1306,dte,1 (2053).jpg,0.0-24.0-1.0-0.16,1,True,,0,True,,True,False,,True,True,,8,9,9,0,,,,,,,0,,,,,images/1 (2053).jpg,,Dn,,,16,0,,dte,,,finalTest,,20,5,413,29602,0.49,1178,image-keyboard-response,,,,"current target, in next trial",,,,885
dte,0uDoE7Y0rqHXa1F5Q6Q8,,,,False,,,2,r,,,,,,T_target,3,,1306,dte,1 (1016).jpg,0.0-6.0-2.0-0.11,1,True,True,0,,True,True,False,True,True,False,2,2,0,7,0,,,1,,,,,,,,,images/1 (1016).jpg,B,B,,12,12,0,,dte,,,initial_study,28,28,0,305,13767,0.23,94,image-keyboard-response,1,1,0,"current target, not in next trial",,,,1395
dte,0uNwSiG4pz1h80mJlM8w,,0,,,,,2,r,False,False,False,,j,T_target,3,,1306,dte,1 (2065).jpg,0.0-19.0-1.0-0.30,1,True,,0,True,,True,False,,True,True,,7,8,4,0,,,,,,,0,,,,,images/1 (2065).jpg,,Dn,,,4,0,,dte,,,finalTest,,7,16,187,26839,0.45,952,image-keyboard-response,,,,"current target, in next trial",,,,885
dte,0uTkIvtTcaXum0JvL3HC,,0,,,,,2,r,False,,,,f,F,3,,1306,dte,1 (321).jpg,0.0-23.0-1.0-0.16,1,True,,0,False,,False,False,,False,False,,0,0,8,1,,,1,,,,0,,,,,images/1 (321).jpg,,FF,,,0,0,,dte,,,finalTest,,0,0,365,29016,0.48,1130,image-keyboard-response,,,,final Foil,,,,885
dte,0v9eCae80GilUOzcoF3f,,0,,,,,2,r,False,,,,f,F,3,,1306,dte,1 (142).jpg,0.0-18.0-1.0-0.32,1,True,,0,False,,False,False,,False,False,,0,0,3,4,,,1,,,,0,,,,,images/1 (142).jpg,,FF,,,0,0,,dte,,,finalTest,,0,0,141,26301,0.44,906,image-keyboard-response,,,,final Foil,,,,885
dte,0xvogEuSsUEpgeDbPs9U,,,,False,,,2,r,,,,,,T_target,3,,1306,dte,1 (1655).jpg,0.0-14.0-2.0-0.6,1,True,True,0,,True,True,False,True,True,False,10,10,0,4,0,,,1,,,,,,,,,images/1 (1655).jpg,B,B,,7,7,0,,dte,,,initial_study,25,25,0,171,23456,0.39,697,image-keyboard-response,1,1,0,"current target, not in next trial",,,,885
dte,13AsVpakYE0rKRZATVxA,,0,,False,,,2,r,False,False,,,j,T_target,3,,1306,dte,1 (2254).jpg,0.0-9.0-10.0-0.1,1,True,True,0,False,True,True,False,True,True,False,5,5,False,,0,,,1,,,,0,,,,,images/1 (2254).jpg,B,B,,17,17,0,,dte,,,initialTest_response,2,2,0,207,17756,0.30,356,image-keyboard-response,1,1,0,"current target, not in next trial",,,,885
dte,17ySHOAuZXh9h29Q3UcN,,0,,,,,2,r,False,,,,j,T_nontarget,3,,1306,dte,1 (1404).jpg,0.0-22.0-1.0-0.26,1,True,,0,True,,True,False,,False,False,,1,0,7,0,,,,,,,0,,,,,images/1 (1404).jpg,,A,,,26,0,,dte,,,finalTest,,0,0,327,28539,0.48,1092,image-keyboard-response,,,,"studied only, not in trial",,,,885
dte,1COHYrl4nA0N48YLnusn,,,,False,,,2,r,,,,,,T_target,3,,1306,dte,1 (1548).jpg,0.0-13.0-2.0-0.20,1,False,True,0,,True,True,False,True,True,False,9,9,0,,0,,,1,,,,,,,,,images/1 (1548).jpg,B,B,,21,21,0,,dte,,,initial_study,17,17,0,0,22417,0.37,635,image-keyboard-response,1,1,0,"current target, not in next trial",,,,885
dte,1GlmEbx34PdiF2XITlIs,,0,,True,,,2,r,False,False,False,,f,T_foil,3,,1306,dte,1 (1582).jpg,0.0-6.0-10.0-0.8,1,False,False,0,False,False,True,False,True,True,True,2,1,2,,0,,,2,,,,0,,,,,images/1 (1582).jpg,Dn,Dn,,0,15,0,,dte,,,initialTest_response,9,15,9,0,14302,0.24,135,image-keyboard-response,1,1,1,"current target, in next trial, from last trial",,,,885
dte,1HGB8gWQpdGnO43xNAvp,,0,,True,,,2,r,False,False,False,,f,T_foil,3,,1306,dte,1 (490).jpg,0.0-9.0-10.0-0.3,1,True,False,0,False,False,True,False,True,True,True,5,4,5,,0,,,2,,,,0,,,,,images/1 (490).jpg,Dn,Dn,,0,6,0,,dte,,,initialTest_response,4,6,4,179,17800,0.30,358,image-keyboard-response,1,1,1,"current target, in next trial, from last trial",,,,885
dte,1QmdASxjqvyhcbWXu2zr,,0,,,,,2,r,False,,,,j,T_nontarget,3,,1306,dte,1 (1793).jpg,0.0-19.0-1.0-0.32,1,True,,0,True,,True,False,,False,False,,9,0,4,0,,,,,,,0,,,,,images/1 (1793).jpg,,A,,,3,0,,dte,,,finalTest,,0,0,189,26862,0.45,954,image-keyboard-response,,,,"studied only, not in trial",,,,885
dte,1TW60DPQ0eu1t8Pg6AI6,,0,,True,,,2,r,False,False,,,f,T_foil,3,,1306,dte,1 (731).jpg,0.0-10.0-10.0-0.3,1,False,True,0,False,False,False,False,True,True,True,6,6,7,,0,,,1,,,,0,,,,,images/1 (731).jpg,Fnn+1,Fnn,,0,0,0,,dte,,,initialTest_response,4,4,8,0,19015,0.32,434,image-keyboard-response,0,1,1,"tested only, in next trial",,,,885
dte,1WBaTWJKbm04xDHUzNOM,,0,,False,,,2,r,False,False,,,f,T_foil,3,,1306,dte,1 (830).jpg,0.0-6.0-10.0-0.28,1,True,True,0,False,False,False,False,True,True,False,2,2,False,7,0,,,1,,,,0,,,,,images/1 (830).jpg,Fn+1,Fn,,0,0,0,,dte,,,initialTest_response,29,29,0,344,14754,0.25,155,image-keyboard-response,0,1,0,"tested only, not in next trial",,,,885
dte,1Y53VzZxvHF9BqKWvc9b,,0,,,,,2,r,False,False,False,,j,T_target,3,,1306,dte,1 (2044).jpg,0.0-18.0-1.0-0.14,1,True,,0,True,,True,False,,True,True,,5,6,3,0,,,,,,,0,,,,,images/1 (2044).jpg,,Dn,,,19,0,,dte,,,finalTest,,25,9,123,26081,0.44,888,image-keyboard-response,,,,"current target, in next trial",,,,885
dte,1bvSYMnQtFLcrUrndr1G,,,,True,,,2,r,,,,,,T_target,3,,1306,dte,1 (515).jpg,0.0-6.0-2.0-0.29,1,True,True,0,,True,True,False,True,True,True,2,2,3,2,0,,,1,,,,,,,,,images/1 (515).jpg,Dn+1,Dn,,30,30,0,,dte,,,initial_study,11,11,24,78,13973,0.23,112,image-keyboard-response,1,1,1,"current target, in next trial",,,,1395
dte,1e7OILQIDTzW0qt7K7dG,,0,,False,,,2,r,False,False,,,j,T_target,3,,1306,dte,1 (499).jpg,0.0-9.0-10.0-0.10,1,True,True,0,False,True,True,False,True,True,False,5,5,False,,0,,,1,,,,0,,,,,images/1 (499).jpg,B,B,,25,25,0,,dte,,,initialTest_response,11,11,0,273,17960,0.30,365,image-keyboard-response,1,1,0,"current target, not in next trial",,,,885
dte,1l2BnFqf4F0OfYEw7Iba,,0,,True,,,2,r,False,False,False,,f,T_foil,3,,1306,dte,1 (216).jpg,0.0-8.0-10.0-0.8,1,True,False,0,False,False,True,False,True,True,True,4,3,4,,0,,,2,,,,0,,,,,images/1 (216).jpg,Dn,Dn,,0,5,0,,dte,,,initialTest_response,9,5,9,473,16720,0.28,287,image-keyboard-response,1,1,1,"current target, in next trial, from last trial",,,,885
dte,1nxBSrhsJSsXpODeETXy,,,,,,,2,r,,,,,,,3,,1306,dte,,0.0-14.0-7.0-0.0,1,,,0,,,,,,,,,,,,,,,,,,,,,,,,<p background:white>INCORRECT!</p>,,,,,,,,dte,,,promptfeedback,,,,,23880,0.40,732,html-keyboard-response,,,,,,,,885
dte,1svJRo7ICUVdyGYfDWBU,,,,True,,,2,r,,,,,,T_target,3,,1306,dte,1 (2283).jpg,0.0-11.0-2.0-0.22,1,False,True,0,,True,True,False,True,True,True,7,7,8,,0,,,1,,,,,,,,,images/1 (2283).jpg,Dn+1,Dn,,23,23,0,,dte,,,initial_study,4,4,22,0,19918,0.33,485,image-keyboard-response,1,1,1,"current target, in next trial",,,,885
dte,1yznwihGBt4uTuaoJkX0,,,,False,,,2,r,,,,,,T_nontarget,3,,1306,dte,1 (829).jpg,0.0-12.0-2.0-0.20,1,False,True,0,,True,True,False,False,False,False,8,8,0,,0,,,1,,,,,,,,,images/1 (829).jpg,A,A,,21,21,0,,dte,,,initial_study,0,0,0,0,21096,0.35,559,image-keyboard-response,1,0,0,"studied only, not in trial",,,,885
dte,20xlfBZhdhgmc3hL8LId,,,,False,,,2,r,,,,,,T_nontarget,3,,1306,dte,1 (1256).jpg,0.0-10.0-2.0-0.0,1,True,True,0,,True,True,False,False,False,False,6,6,0,5,0,,,1,,,,,,,,,images/1 (1256).jpg,A,A,,1,1,0,,dte,,,initial_study,0,0,0,218,18435,0.31,387,image-keyboard-response,1,0,0,"studied only, not in trial",,,,885
dte,29h1em8fqPApic80msP9,,0,,True,,,2,r,False,False,,,f,T_foil,3,,1306,dte,1 (178).jpg,0.0-9.0-10.0-0.27,1,False,True,0,False,False,False,False,True,True,True,5,5,6,,0,,,1,,,,0,,,,,images/1 (178).jpg,Fnn+1,Fnn,,0,0,0,,dte,,,initialTest_response,28,28,12,0,18342,0.31,382,image-keyboard-response,0,1,1,"tested only, in next trial",,,,885
dte,2DhNKEV58pGP5BcAAQpi,,,,True,,,2,r,,,,,,T_nontarget,3,,1306,dte,1 (1387).jpg,0.0-7.0-2.0-0.5,1,False,True,0,,True,True,False,False,False,True,3,3,4,,0,,,1,,,,,,,,,images/1 (1387).jpg,Cn+1,Cn,,6,6,0,,dte,,,initial_study,0,0,30,0,14891,0.25,164,image-keyboard-response,1,0,1,"studied only, in next trial",,,,885
dte,2O2jcPFqj4stRWxtavz0,,0,,True,,,2,r,False,,False,,f,T_foil,3,,1306,dte,1 (1519).jpg,0.0-10.0-10.0-0.22,1,True,False,0,False,False,True,False,True,False,True,6,5,6,,0,,,2,,,,0,,,,,images/1 (1519).jpg,Cn,Cn,,0,1,0,,dte,,,initialTest_response,23,0,23,281,19451,0.33,453,image-keyboard-response,1,0,1,"studied only, in next trial, from last trial",,,,885
dte,2QlMqm6LXBDICr3XM71Y,,0,,,,,2,r,False,,,,f,F,3,,1306,dte,1 (8).jpg,0.0-25.0-1.0-0.2,1,True,,0,False,,False,False,,False,False,,0,0,10,3,,,1,,,,0,,,,,images/1 (8).jpg,,FF,,,0,0,,dte,,,finalTest,,0,0,447,30027,0.50,1212,image-keyboard-response,,,,final Foil,,,,885
dte,2RL3uHXrQfi2lLHaeWAA,,0,,True,,,2,r,False,False,False,,f,T_foil,3,,1306,dte,1 (1468).jpg,0.0-12.0-10.0-0.23,1,True,False,0,False,False,False,False,True,False,True,8,7,8,,0,,,2,,,,0,,,,,images/1 (1468).jpg,Fnn,Fnn,,0,0,0,,dte,,,initialTest_response,24,0,24,106,22017,0.37,606,image-keyboard-response,0,1,1,"tested only, in next trial, from last trial",,,,885
dte,2WTl9c7nMQ8QQwGIVVxu,,0,,,,,2,r,False,,,,j,T_target,3,,1306,dte,1 (892).jpg,0.0-16.0-1.0-0.50,1,True,,0,True,,True,False,,True,False,,6,0,1,0,,,,,,,0,,,,,images/1 (892).jpg,,B,,,30,0,,dte,,,finalTest,,16,0,51,25209,0.42,816,image-keyboard-response,,,,"current target, not in next trial",,,,885
dte,2XbgDSmQPCKJ1rImNsIQ,,0,,True,,,2,r,False,False,,,j,T_target,3,,1306,dte,1 (1479).jpg,0.0-13.0-10.0-0.9,1,True,True,0,False,True,True,False,True,True,True,9,9,10,,0,,,1,,,,0,,,,,images/1 (1479).jpg,Dn+1,Dn,,11,11,0,,dte,,,initialTest_response,10,10,14,270,22893,0.38,668,image-keyboard-response,1,1,1,"current target, in next trial",,,,885
dte,2ihh44UivAPEkcZWGQbV,,0,,,,,2,r,False,,,,f,F,3,,1306,dte,1 (1310).jpg,0.0-21.0-1.0-0.23,1,True,,0,False,,False,False,,False,False,,0,0,6,6,,,1,,,,0,,,,,images/1 (1310).jpg,,FF,,,0,0,,dte,,,finalTest,,0,0,276,27907,0.47,1041,image-keyboard-response,,,,final Foil,,,,885
dte,2l7wjjxu7pCP8l47DAkS,,0,,True,,,2,r,False,,False,,f,T_foil,3,,1306,dte,1 (2140).jpg,0.0-14.0-10.0-0.11,1,True,False,0,False,False,True,False,True,False,False,10,9,0,,0,,,2,,,,0,,,,,images/1 (2140).jpg,Cn,Cn,,0,14,0,,dte,,,initialTest_response,12,0,0,271,24157,0.40,746,image-keyboard-response,1,0,1,"studied only, in next trial, from last trial",,,,885
dte,2mQUHeM4HU0zzRaC7cRF,,0,,,,,2,r,False,,,,j,T_target,3,,1306,dte,1 (169).jpg,0.0-17.0-1.0-0.43,1,True,,0,True,,True,False,,True,False,,4,0,2,0,,,,,,,0,,,,,images/1 (169).jpg,,B,,,9,0,,dte,,,finalTest,,12,0,104,25856,0.43,869,image-keyboard-response,,,,"current target, not in next trial",,,,885
dte,2mh8XsTrKWCZreStaAB7,,0,,False,,,2,r,False,False,,,j,T_target,3,,1306,dte,1 (2237).jpg,0.0-8.0-10.0-0.4,1,True,True,0,False,True,True,False,True,True,False,4,4,False,,0,,,1,,,,0,,,,,images/1 (2237).jpg,B,B,,27,27,0,,dte,,,initialTest_response,5,5,0,5,16624,0.28,283,image-keyboard-response,1,1,0,"current target, not in next trial",,,,885
dte,2oT03aolaKGuFORxjfqJ,,0,,,,,2,r,False,,,,f,F,3,,1306,dte,1 (1376).jpg,0.0-24.0-1.0-0.12,1,True,,0,False,,False,False,,False,False,,0,0,9,0,,,1,,,,0,,,,,images/1 (1376).jpg,,FF,,,0,0,,dte,,,finalTest,,0,0,409,29556,0.49,1174,image-keyboard-response,,,,final Foil,,,,885
dte,2s3cs5GEH58eqLQUWXHz,,0,,False,,,2,r,False,False,,,j,T_target,3,,1306,dte,1 (124).jpg,0.0-13.0-10.0-0.5,1,True,True,0,False,True,True,False,True,True,False,9,9,False,,0,,,1,,,,0,,,,,images/1 (124).jpg,B,B,,18,18,0,,dte,,,initialTest_response,6,6,0,153,22803,0.38,664,image-keyboard-response,1,1,0,"current target, not in next trial",,,,885
dte,2sHZQZG6xAgy3U62VAlG,,,,False,,,2,r,,,,,,T_nontarget,3,,1306,dte,1 (1891).jpg,0.0-12.0-2.0-0.17,1,True,True,0,,True,True,False,False,False,False,8,8,0,8,0,,,1,,,,,,,,,images/1 (1891).jpg,A,A,,18,18,0,,dte,,,initial_study,0,0,0,379,21061,0.35,556,image-keyboard-response,1,0,0,"studied only, not in trial",,,,885
dte,2soetaJg6J27mjpjiEde,,0,,,,,2,r,False,,,,j,T_foil,3,,1306,dte,1 (1117).jpg,0.0-18.0-1.0-0.4,1,True,,0,True,,False,False,,True,False,,1,False,3,1,,,,,,,0,,,,,images/1 (1117).jpg,,Fn,,,0,0,,dte,,,finalTest,,21,0,113,25960,0.43,878,image-keyboard-response,,,,"tested only, not in next trial",,,,885
dte,2u1YnOlxq1N3DoRv9yVj,,,,False,,,2,r,,,,,,T_nontarget,3,,1306,dte,1 (861).jpg,0.0-9.0-2.0-0.26,1,True,True,0,,True,True,False,False,False,False,5,5,0,6,0,,,1,,,,,,,,,images/1 (861).jpg,A,A,,27,27,0,,dte,,,initial_study,0,0,0,290,17535,0.29,337,image-keyboard-response,1,0,0,"studied only, not in trial",,,,885
dte,2w49ZmipQpacVgYlyHbM,,0,,False,,,2,r,False,False,,,j,T_target,3,,1306,dte,1 (1434).jpg,0.0-6.0-10.0-0.2,1,True,True,0,False,True,True,False,True,True,False,2,2,False,,0,,,1,,,,0,,,,,images/1 (1434).jpg,B,B,,4,4,0,,dte,,,initialTest_response,3,3,0,150,14176,0.24,129,image-keyboard-response,1,1,0,"current target, not in next trial",,,,885
dte,2wkrjpgCAQYHT3WAYnie,,0,,,,,2,r,False,,,,f,F,3,,1306,dte,1 (1579).jpg,0.0-22.0-1.0-0.22,1,True,,0,False,,False,False,,False,False,,0,0,7,4,,,1,,,,0,,,,,images/1 (1579).jpg,,FF,,,0,0,,dte,,,finalTest,,0,0,323,28492,0.48,1088,image-keyboard-response,,,,final Foil,,,,885
dte,31WdLiiGmkxQEzvhqAJJ,,0,,,,,2,r,False,,,,j,T_nontarget,3,,1306,dte,1 (1139).jpg,0.0-16.0-1.0-0.8,1,True,,0,True,,True,False,,False,False,,4,0,1,0,,,,,,,0,,,,,images/1 (1139).jpg,,A,,,1,0,,dte,,,finalTest,,0,0,9,24701,0.41,774,image-keyboard-response,,,,"studied only, not in trial",,,,885
dte,33UHD3FIbpLIWfJIrq12,,,,False,,,2,r,,,,,,T_nontarget,3,,1306,dte,1 (302).jpg,0.0-11.0-2.0-0.18,1,True,True,0,,True,True,False,False,False,False,7,7,0,3,0,,,1,,,,,,,,,images/1 (302).jpg,A,A,,19,19,0,,dte,,,initial_study,0,0,0,144,19874,0.33,481,image-keyboard-response,1,0,0,"studied only, not in trial",,,,885
dte,37g24lmoAV7AlWQp9RL7,,0,,,,,2,r,False,,,,f,F,3,,1306,dte,1 (977).jpg,0.0-24.0-1.0-0.27,1,True,,0,False,,False,False,,False,False,,0,0,9,8,,,1,,,,0,,,,,images/1 (977).jpg,,FF,,,0,0,,dte,,,finalTest,,0,0,424,29739,0.50,1189,image-keyboard-response,,,,final Foil,,,,885
dte,38GSQ4eeEzGWMXInLqvv,,,,False,,,2,r,,,,,,T_target,3,,1306,dte,1 (1544).jpg,0.0-14.0-2.0-0.7,1,False,True,0,,True,True,False,True,True,False,10,10,0,,0,,,1,,,,,,,,,images/1 (1544).jpg,B,B,,8,8,0,,dte,,,initial_study,27,27,0,0,23468,0.39,698,image-keyboard-response,1,1,0,"current target, not in next trial",,,,885
dte,393NEsVrRC9K4MJ40YM5,,,,True,,,2,r,,,,,,T_nontarget,3,,1306,dte,1 (1994).jpg,0.0-5.0-2.0-0.24,1,True,True,0,,True,True,False,False,False,True,1,1,2,1,0,,,1,,,,,,,,,images/1 (1994).jpg,Cn+1,Cn,,25,25,0,,dte,,,initial_study,0,0,22,29,12626,0.21,31,image-keyboard-response,1,0,1,"studied only, in next trial",,,,1395
dte,3Ajw8Igom7qFLcBtsh9J,,,,False,,,2,r,,,,,,T_target,3,,1306,dte,1 (1718).jpg,0.0-12.0-2.0-0.11,1,False,True,0,,True,True,False,True,True,False,8,8,0,,0,,,1,,,,,,,,,images/1 (1718).jpg,B,B,,12,12,0,,dte,,,initial_study,14,14,0,0,20992,0.35,550,image-keyboard-response,1,1,0,"current target, not in next trial",,,,885
dte,3GJB6OpFhGXnm5AQvvaq,,0,,,,,2,r,False,,,,f,F,3,,1306,dte,1 (2342).jpg,0.0-20.0-1.0-0.30,1,True,,0,False,,False,False,,False,False,,0,0,5,9,,,1,,,,0,,,,,images/1 (2342).jpg,,FF,,,0,0,,dte,,,finalTest,,0,0,235,27416,0.46,1000,image-keyboard-response,,,,final Foil,,,,885
dte,3KnteWLbJVTwtVb1MtDm,,0,,,,,2,r,False,,,,f,F,3,,1306,dte,1 (2120).jpg,0.0-16.0-1.0-0.21,1,True,,0,False,,False,False,,False,False,,0,0,1,0,,,1,,,,0,,,,,images/1 (2120).jpg,,FF,,,0,0,,dte,,,finalTest,,0,0,22,24860,0.42,787,image-keyboard-response,,,,final Foil,,,,885
dte,3NKu2tHomIJR1gZPymCF,,,,,,,2,r,,,,,,,3,,1306,dte,,0.0-13.0-3.0-0.0,1,,,0,,,,,,,,,,,,,,,,,,,,,,,,Summing up the digits as they appear,,,,,,,,dte,,,prompt,,,,,22535,0.38,645,html-keyboard-response,,,,,,,,885
dte,3OPeBBDutuLOEo9fLRmD,,0,,,,,2,r,False,,,,f,F,3,,1306,dte,1 (1818).jpg,0.0-16.0-1.0-0.20,1,True,,0,False,,False,False,,False,False,,0,0,1,4,,,1,,,,0,,,,,images/1 (1818).jpg,,FF,,,0,0,,dte,,,finalTest,,0,0,21,24849,0.42,786,image-keyboard-response,,,,final Foil,,,,885
dte,3QmSxpdhenfv9yLkKelb,,0,,False,,,2,r,False,False,,,j,T_target,3,,1306,dte,1 (2223).jpg,0.0-11.0-10.0-0.11,1,False,True,0,False,True,True,False,True,True,False,7,7,False,,0,,,1,,,,0,,,,,images/1 (2223).jpg,B,B,,21,21,0,,dte,,,initialTest_response,12,12,0,0,20408,0.34,518,image-keyboard-response,1,1,0,"current target, not in next trial",,,,885
dte,3RXqlt4HLpH0VZ1vtFZd,,0,,False,,,2,r,False,False,,,j,T_target,3,,1306,dte,1 (361).jpg,0.0-11.0-10.0-0.16,1,True,True,0,False,True,True,False,True,True,False,7,7,False,,0,,,1,,,,0,,,,,images/1 (361).jpg,B,B,,17,17,0,,dte,,,initialTest_response,17,17,0,223,20523,0.34,523,image-keyboard-response,1,1,0,"current target, not in next trial",,,,885
dte,3SDbqpgo6icJsAPT4X2o,,0,,,,,2,r,False,,,,j,T_nontarget,3,,1306,dte,1 (727).jpg,0.0-25.0-1.0-0.10,1,True,,0,True,,True,False,,False,False,,10,0,10,0,,,,,,,0,,,,,images/1 (727).jpg,,Cn,,,1,0,,dte,,,finalTest,,0,0,455,30118,0.50,1220,image-keyboard-response,,,,"studied only, in next trial",,,,885
dte,3VvRm6YA2hymOyhNbRQ7,,,,,,,2,r,,,,,,,3,,1306,dte,,0.0-10.0-5.0-0.4,1,,,0,,,,,,,,6,,,,,,,,,5,,,,,,,6,,,6,,,,,dte,,47,digitPresentation,,,,,18858,0.32,423,html-keyboard-response,,,,,,,,885
dte,3X08FtLCTE4p1sxx7PLR,,0,,,,,2,r,False,,,,j,T_nontarget,3,,1306,dte,1 (1134).jpg,0.0-24.0-1.0-0.17,1,True,,0,True,,True,False,,False,False,,2,0,9,0,,,,,,,0,,,,,images/1 (1134).jpg,,A,,,23,0,,dte,,,finalTest,,0,0,414,29614,0.49,1179,image-keyboard-response,,,,"studied only, not in trial",,,,885
dte,3XunZIWDfngvmq30vFxo,,0,,,,,2,r,False,,,,j,T_nontarget,3,,1306,dte,1 (737).jpg,0.0-17.0-1.0-0.22,1,True,,0,True,,True,False,,False,False,,5,0,2,0,,,,,,,0,,,,,images/1 (737).jpg,,A,,,28,0,,dte,,,finalTest,,0,0,83,25599,0.43,848,image-keyboard-response,,,,"studied only, not in trial",,,,885
dte,3ZqTbvUvY0A62T8UEILD,,,,,,,2,r,,,,,,,3,,1306,dte,,0.0-11.0-5.0-0.1,1,,,0,,,,,,,,7,,,,,,,,,2,,,,,,,5,,,5,,,,,dte,,37,digitPresentation,,,,,20043,0.34,496,html-keyboard-response,,,,,,,,885
dte,3aqAqLxSZJtXCyeT59EY,,,,False,,,2,r,,,,,,T_nontarget,3,,1306,dte,1 (78).jpg,0.0-9.0-2.0-0.6,1,True,True,0,,True,True,False,False,False,False,5,5,0,5,0,,,1,,,,,,,,,images/1 (78).jpg,A,A,,7,7,0,,dte,,,initial_study,0,0,0,209,17305,0.29,317,image-keyboard-response,1,0,0,"studied only, not in trial",,,,885
dte,3av1lf1r87ED9iEWYUin,,0,,True,,,2,r,False,False,,,f,T_foil,3,,1306,dte,1 (2230).jpg,0.0-13.0-10.0-0.29,1,False,True,0,False,False,False,False,True,True,True,9,9,10,,0,,,1,,,,0,,,,,images/1 (2230).jpg,Fnn+1,Fnn,,0,0,0,,dte,,,initialTest_response,30,30,30,0,23344,0.39,688,image-keyboard-response,0,1,1,"tested only, in next trial",,,,885
dte,3eTZL6XmVXTftEe1iNvV,,0,,,,,2,r,False,,,,f,F,3,,1306,dte,1 (1912).jpg,0.0-21.0-1.0-0.44,1,True,,0,False,,False,False,,False,False,,0,0,6,7,,,1,,,,0,,,,,images/1 (1912).jpg,,FF,,,0,0,,dte,,,finalTest,,0,0,297,28167,0.47,1062,image-keyboard-response,,,,final Foil,,,,885
dte,3f8u0ZzvmOmoiGZFW8Fa,,,,True,,,2,r,,,,,,T_target,3,,1306,dte,1 (1101).jpg,0.0-5.0-2.0-0.2,1,True,True,0,,True,True,False,True,True,True,1,1,2,2,0,,,1,,,,,,,,,images/1 (1101).jpg,Dn+1,Dn,,3,3,0,,dte,,,initial_study,26,26,8,81,12240,0.21,9,image-keyboard-response,1,1,1,"current target, in next trial",,,,1395
dte,3grxvsJzxkMahd8YkRaZ,,0,,,,,2,r,False,,,,j,T_target,3,,1306,dte,1 (639).jpg,0.0-16.0-1.0-0.59,1,True,,0,True,,True,False,,True,False,,10,0,1,0,,,,,,,0,,,,,images/1 (639).jpg,,B,,,12,0,,dte,,,finalTest,,8,0,60,25319,0.42,825,image-keyboard-response,,,,"current target, not in next trial",,,,885
dte,3h4FhoJsrsU0jt21n6ho,,0,,,,,2,r,False,,,,j,T_nontarget,3,,1306,dte,1 (103).jpg,0.0-24.0-1.0-0.20,1,True,,0,True,,True,False,,False,False,,2,0,9,0,,,,,,,0,,,,,images/1 (103).jpg,,A,,,19,0,,dte,,,finalTest,,0,0,417,29653,0.50,1182,image-keyboard-response,,,,"studied only, not in trial",,,,885
dte,3jm4x0gB5YPFL8TFz3ml,,,,False,,,2,r,,,,,,T_nontarget,3,,1306,dte,1 (1754).jpg,0.0-13.0-2.0-0.5,1,True,True,0,,True,True,False,False,False,False,9,9,0,7,0,,,1,,,,,,,,,images/1 (1754).jpg,A,A,,6,6,0,,dte,,,initial_study,0,0,0,343,22250,0.37,620,image-keyboard-response,1,0,0,"studied only, not in trial",,,,885
dte,3mjQOZmMfDuJHNcGby0r,,,,False,,,2,r,,,,,,T_nontarget,3,,1306,dte,1 (1944).jpg,0.0-11.0-2.0-0.24,1,True,True,0,,True,True,False,False,False,False,7,7,0,10,0,,,1,,,,,,,,,images/1 (1944).jpg,A,A,,25,25,0,,dte,,,initial_study,0,0,0,484,19941,0.33,487,image-keyboard-response,1,0,0,"studied only, not in trial",,,,885
dte,3r7opGviumZRgCNoznJG,,,,False,,,2,r,,,,,,T_nontarget,3,,1306,dte,1 (968).jpg,0.0-14.0-2.0-0.25,1,False,True,0,,True,True,False,False,False,False,10,10,0,,0,,,1,,,,,,,,,images/1 (968).jpg,A,A,,26,26,0,,dte,,,initial_study,0,0,0,0,23692,0.40,716,image-keyboard-response,1,0,0,"studied only, not in trial",,,,885
dte,3uqTmqutgsYBgj3OdpaG,,0,,False,,,2,r,False,False,,,j,T_target,3,,1306,dte,1 (2240).jpg,0.0-7.0-10.0-0.8,1,True,True,0,False,True,True,False,True,True,False,3,3,False,,0,,,1,,,,0,,,,,images/1 (2240).jpg,B,B,,25,25,0,,dte,,,initialTest_response,9,9,0,57,15510,0.26,211,image-keyboard-response,1,1,0,"current target, not in next trial",,,,885
dte,3uv4z2hAHQyU0b7UXVSK,,0,,,,,2,r,False,False,False,,j,T_foil,3,,1306,dte,1 (179).jpg,0.0-20.0-1.0-0.27,1,True,,0,True,,False,False,,True,True,,2,3,5,2,,,,,,,0,,,,,images/1 (179).jpg,,Fnn,,,0,0,,dte,,,finalTest,,4,17,232,27379,0.46,997,image-keyboard-response,,,,"tested only, in next trial",,,,885
dte,3uvQpKoMmKa2DRnjTYm5,,0,,False,,,2,r,False,False,,,j,T_target,3,,1306,dte,1 (1183).jpg,0.0-12.0-10.0-0.16,1,True,True,0,False,True,True,False,True,True,False,8,8,False,,0,,,1,,,,0,,,,,images/1 (1183).jpg,B,B,,19,19,0,,dte,,,initialTest_response,17,17,0,241,21869,0.37,599,image-keyboard-response,1,1,0,"current target, not in next trial",,,,885
dte,3w8x5yocMmCShsO7oXtC,,0,,False,,,2,r,False,False,,,j,T_target,3,,1306,dte,1 (303).jpg,0.0-5.0-10.0-0.19,1,False,True,0,False,True,True,False,True,True,False,1,1,False,,0,,,1,,,,0,,,,,images/1 (303).jpg,B,B,,10,10,0,,dte,,,initialTest_response,20,20,0,0,13383,0.22,70,image-keyboard-response,1,1,0,"current target, not in next trial",,,,885
dte,3xJ6NxWtWPWfuQEh1bFj,,0,,True,,,2,r,False,False,False,,f,T_foil,3,,1306,dte,1 (2235).jpg,0.0-11.0-10.0-0.2,1,True,False,0,False,False,True,False,True,True,True,7,6,7,,0,,,2,,,,0,,,,,images/1 (2235).jpg,Dn,Dn,,0,29,0,,dte,,,initialTest_response,3,29,3,400,20211,0.34,509,image-keyboard-response,1,1,1,"current target, in next trial, from last trial",,,,885
dte,40lNlVIbKjXbJ2UV0n22,,,,,,,2,r,,,,,,,3,,1306,dte,,0.0-8.0-5.0-0.4,1,,,0,,,,,,,,4,,,,,,,,,5,,,,,,,5,,,5,,,,,dte,,53,digitPresentation,,,,,16447,0.28,271,html-keyboard-response,,,,,,,,885
dte,42orbo0CyP7dC61KrCvu,,0,,,,,2,r,False,,,,j,T_nontarget,3,,1306,dte,1 (155).jpg,0.0-24.0-1.0-0.9,1,True,,0,True,,True,False,,False,False,,3,0,9,0,,,,,,,0,,,,,images/1 (155).jpg,,A,,,15,0,,dte,,,finalTest,,0,0,406,29518,0.49,1171,image-keyboard-response,,,,"studied only, not in trial",,,,885
dte,44kTHwcVnGdBbQlsZnxj,,0,,True,,,2,r,False,,False,,f,T_foil,3,,1306,dte,1 (126).jpg,0.0-6.0-10.0-0.26,1,False,False,0,False,False,True,False,True,False,True,2,1,2,,0,,,2,,,,0,,,,,images/1 (126).jpg,Cn,Cn,,0,16,0,,dte,,,initialTest_response,27,0,27,0,14711,0.25,153,image-keyboard-response,1,0,1,"studied only, in next trial, from last trial",,,,885
dte,48KAbKADnF547NB0CWkf,,0,,False,,,2,r,False,False,,,f,T_foil,3,,1306,dte,1 (789).jpg,0.0-8.0-10.0-0.23,1,True,True,0,False,False,False,False,True,True,False,4,4,False,9,0,,,1,,,,0,,,,,images/1 (789).jpg,Fn+1,Fn,,0,0,0,,dte,,,initialTest_response,24,24,0,437,17064,0.29,302,image-keyboard-response,0,1,0,"tested only, not in next trial",,,,885
dte,4Ah3jTIAwMEuqbF7OAVM,,0,,,,,2,r,False,,,,j,T_target,3,,1306,dte,1 (2034).jpg,0.0-19.0-1.0-0.1,1,True,,0,True,,True,False,,True,False,,8,0,4,0,,,,,,,0,,,,,images/1 (2034).jpg,,B,,,3,0,,dte,,,finalTest,,27,0,158,26504,0.44,923,image-keyboard-response,,,,"current target, not in next trial",,,,885
dte,4CmMOtBaklGBC15Vkezm,,,,False,,,2,r,,,,,,T_nontarget,3,,1306,dte,1 (846).jpg,0.0-14.0-2.0-0.10,1,True,True,0,,True,True,False,False,False,False,10,10,0,1,0,,,1,,,,,,,,,images/1 (846).jpg,A,A,,11,11,0,,dte,,,initial_study,0,0,0,35,23502,0.39,701,image-keyboard-response,1,0,0,"studied only, not in trial",,,,885
dte,4FbYfXocyOqGFlYBSew9,,0,,True,,,2,r,False,False,,,j,T_target,3,,1306,dte,1 (1101).jpg,0.0-5.0-10.0-0.25,1,True,True,0,False,True,True,False,True,True,True,1,1,2,,0,,,1,,,,0,,,,,images/1 (1101).jpg,Dn+1,Dn,,3,3,0,,dte,,,initialTest_response,26,26,8,81,13508,0.23,76,image-keyboard-response,1,1,1,"current target, in next trial",,,,885
dte,4IpaoaTgCJcZc3P43EUM,,,,False,,,2,r,,,,,,T_target,3,,1306,dte,1 (1675).jpg,0.0-14.0-2.0-0.29,1,True,True,0,,True,True,False,True,True,False,10,10,0,1,0,,,1,,,,,,,,,images/1 (1675).jpg,B,B,,30,30,0,,dte,,,initial_study,17,17,0,48,23747,0.40,720,image-keyboard-response,1,1,0,"current target, not in next trial",,,,885
dte,4IxO5fTL4YNtC1y1qwz4,,0,,,,,2,r,False,,,,f,F,3,,1306,dte,1 (482).jpg,0.0-23.0-1.0-0.6,1,True,,0,False,,False,False,,False,False,,0,0,8,9,,,1,,,,0,,,,,images/1 (482).jpg,,FF,,,0,0,,dte,,,finalTest,,0,0,355,28895,0.48,1120,image-keyboard-response,,,,final Foil,,,,885
dte,4JG9IIgKNJ1DZFbzzDod,,,,True,,,2,r,,,,,,T_nontarget,3,,1306,dte,1 (553).jpg,0.0-5.0-2.0-0.20,1,True,True,0,,True,True,False,False,False,True,1,1,2,6,0,,,1,,,,,,,,,images/1 (553).jpg,Cn+1,Cn,,21,21,0,,dte,,,initial_study,0,0,2,299,12540,0.21,27,image-keyboard-response,1,0,1,"studied only, in next trial",,,,1395
dte,4KzRNZnQLjco9z78ZBKi,,0,,,,,2,r,False,,,,f,F,3,,1306,dte,1 (44).jpg,0.0-25.0-1.0-0.27,1,True,,0,False,,False,False,,False,False,,0,0,10,6,,,1,,,,0,,,,,images/1 (44).jpg,,FF,,,0,0,,dte,,,finalTest,,0,0,472,30321,0.51,1237,image-keyboard-response,,,,final Foil,,,,885
dte,4NFH1ELVEcscwQUgLb16,,0,,,,,2,r,False,,,,j,T_nontarget,3,,1306,dte,1 (2032).jpg,0.0-22.0-1.0-0.33,1,True,,0,True,,True,False,,False,False,,10,0,7,0,,,,,,,0,,,,,images/1 (2032).jpg,,A,,,6,0,,dte,,,finalTest,,0,0,334,28624,0.48,1099,image-keyboard-response,,,,"studied only, not in trial",,,,885
dte,4O3t70bKZuDpGlw98Oin,,0,,False,,,2,r,False,False,,,f,T_foil,3,,1306,dte,1 (1838).jpg,0.0-5.0-10.0-0.18,1,True,True,0,False,False,False,False,True,True,False,1,1,False,6,0,,,1,,,,0,,,,,images/1 (1838).jpg,Fn+1,Fn,,0,0,0,,dte,,,initialTest_response,19,19,0,286,13363,0.22,69,image-keyboard-response,0,1,0,"tested only, not in next trial",,,,885
dte,4RmFyjwU3t8bGeH37pQe,,0,,,,,2,r,False,,,,f,F,3,,1306,dte,1 (1803).jpg,0.0-20.0-1.0-0.20,1,True,,0,False,,False,False,,False,False,,0,0,5,1,,,1,,,,0,,,,,images/1 (1803).jpg,,FF,,,0,0,,dte,,,finalTest,,0,0,225,27296,0.46,990,image-keyboard-response,,,,final Foil,,,,885
dte,4TOOHFA6z73PPPMP5MVZ,,,,False,,,2,r,,,,,,T_nontarget,3,,1306,dte,1 (1193).jpg,0.0-6.0-2.0-0.28,1,True,True,0,,True,True,False,False,False,False,2,2,0,8,0,,,1,,,,,,,,,images/1 (1193).jpg,A,A,,29,29,0,,dte,,,initial_study,0,0,0,350,13962,0.23,111,image-keyboard-response,1,0,0,"studied only, not in trial",,,,1395
dte,4W8MsHbJDVjiOU6SQYsS,,0,,,,,2,r,False,,,,j,T_nontarget,3,,1306,dte,1 (1297).jpg,0.0-16.0-1.0-0.35,1,True,,0,True,,True,False,,False,False,,9,0,1,0,,,,,,,0,,,,,images/1 (1297).jpg,,A,,,25,0,,dte,,,finalTest,,0,0,36,25022,0.42,801,image-keyboard-response,,,,"studied only, not in trial",,,,885
dte,4WWP5xLqP6uXgVQWpsz8,,0,,True,,,2,r,False,False,False,,f,T_foil,3,,1306,dte,1 (160).jpg,0.0-7.0-10.0-0.26,1,True,False,0,False,False,True,False,True,True,True,3,2,3,,0,,,2,,,,0,,,,,images/1 (160).jpg,Dn,Dn,,0,3,0,,dte,,,initialTest_response,27,3,27,396,15914,0.27,229,image-keyboard-response,1,1,1,"current target, in next trial, from last trial",,,,885
dte,4YOQyOQUi1Suv75JV0H4,,0,,,,,2,r,False,False,,,j,T_target,3,,1306,dte,1 (1332).jpg,0.0-16.0-1.0-0.45,1,True,,0,True,,True,False,,True,False,,10,0,1,0,,,,,,,0,,,,,images/1 (1332).jpg,,Dn,,,29,0,,dte,,,finalTest,,5,0,46,25135,0.42,811,image-keyboard-response,,,,"current target, in next trial",,,,885
dte,4lNJCdYvI1nkbzE8JMQ5,,0,,True,,,2,r,False,,False,,f,T_foil,3,,1306,dte,1 (630).jpg,0.0-9.0-10.0-0.20,1,True,False,0,False,False,True,False,True,False,True,5,4,5,,0,,,2,,,,0,,,,,images/1 (630).jpg,Cn,Cn,,0,8,0,,dte,,,initialTest_response,21,0,21,41,18188,0.30,375,image-keyboard-response,1,0,1,"studied only, in next trial, from last trial",,,,885
dte,4oyGtxoPxXyQmQZc7QzB,,,,False,,,2,r,,,,,,T_nontarget,3,,1306,dte,1 (845).jpg,0.0-8.0-2.0-0.19,1,True,True,0,,True,True,False,False,False,False,4,4,0,3,0,,,1,,,,,,,,,images/1 (845).jpg,A,A,,20,20,0,,dte,,,initial_study,0,0,0,138,16245,0.27,254,image-keyboard-response,1,0,0,"studied only, not in trial",,,,885
dte,4pcbqVy1YyuWyot5kEEa,,0,,True,,,2,r,False,,False,,f,T_foil,3,,1306,dte,1 (2269).jpg,0.0-7.0-10.0-0.13,1,True,False,0,False,False,True,False,True,False,True,3,2,3,,0,,,2,,,,0,,,,,images/1 (2269).jpg,Cn,Cn,,0,13,0,,dte,,,initialTest_response,14,0,14,116,15619,0.26,216,image-keyboard-response,1,0,1,"studied only, in next trial, from last trial",,,,885
dte,4uwF9dO3uVJQFmi85RYh,,0,,,,,2,r,False,,,,j,T_target,3,,1306,dte,1 (1016).jpg,0.0-22.0-1.0-0.4,1,True,,0,True,,True,False,,True,False,,2,0,7,0,,,,,,,0,,,,,images/1 (1016).jpg,,B,,,12,0,,dte,,,finalTest,,28,0,305,28269,0.47,1070,image-keyboard-response,,,,"current target, not in next trial",,,,885
dte,4yaEUwcxYIR0zpLNiDZj,,0,,,,,2,r,False,False,False,,j,T_foil,3,,1306,dte,1 (1159).jpg,0.0-23.0-1.0-0.23,1,True,,0,True,,False,False,,True,True,,2,3,8,2,,,,,,,0,,,,,images/1 (1159).jpg,,Fnn,,,0,0,,dte,,,finalTest,,18,29,372,29096,0.49,1137,image-keyboard-response,,,,"tested only, in next trial",,,,885
dte,4yxXVQ6ITixu3k7bLmfz,,0,,,,,2,r,False,,,,j,T_nontarget,3,,1306,dte,1 (2337).jpg,0.0-20.0-1.0-0.34,1,True,,0,True,,True,False,,False,False,,1,0,5,0,,,,,,,0,,,,,images/1 (2337).jpg,,A,,,17,0,,dte,,,finalTest,,0,0,239,27469,0.46,1004,image-keyboard-response,,,,"studied only, not in trial",,,,885
dte,50wmW3RmGxoFUY5pWkB9,,,,False,,,2,r,,,,,,T_nontarget,3,,1306,dte,1 (1452).jpg,0.0-12.0-2.0-0.24,1,False,True,0,,True,True,False,False,False,False,8,8,0,,0,,,1,,,,,,,,,images/1 (1452).jpg,A,A,,25,25,0,,dte,,,initial_study,0,0,0,0,21142,0.35,563,image-keyboard-response,1,0,0,"studied only, not in trial",,,,885
dte,52C7kmQBvzzzsWXnsVeC,,0,,,,,2,r,False,,,,j,T_nontarget,3,,1306,dte,1 (1155).jpg,0.0-20.0-1.0-0.46,1,True,,0,True,,True,False,,False,False,,8,0,5,0,,,,,,,0,,,,,images/1 (1155).jpg,,A,,,14,0,,dte,,,finalTest,,0,0,251,27613,0.46,1016,image-keyboard-response,,,,"studied only, not in trial",,,,885
dte,549SeideQZgZ0JSBT2WI,,0,,,,,2,r,False,False,False,,j,T_target,3,,1306,dte,1 (659).jpg,0.0-17.0-1.0-0.18,1,True,,0,True,,True,False,,True,True,,3,4,2,0,,,,,,,0,,,,,images/1 (659).jpg,,Dn,,,23,0,,dte,,,finalTest,,22,4,79,25554,0.43,844,image-keyboard-response,,,,"current target, in next trial",,,,885
dte,54GFQ2MzEHTMIvzhuXOJ,,0,,False,,,2,r,False,False,,,f,T_foil,3,,1306,dte,1 (650).jpg,0.0-8.0-10.0-0.25,1,True,True,0,False,False,False,False,True,True,False,4,4,False,1,0,,,1,,,,0,,,,,images/1 (650).jpg,Fn+1,Fn,,0,0,0,,dte,,,initialTest_response,26,26,0,37,17108,0.29,304,image-keyboard-response,0,1,0,"tested only, not in next trial",,,,885
dte,54fca1GIS9Y2JGJO5ofC,,0,,,,,2,r,False,,,,f,F,3,,1306,dte,1 (831).jpg,0.0-17.0-1.0-0.24,1,True,,0,False,,False,False,,False,False,,0,0,2,4,,,1,,,,0,,,,,images/1 (831).jpg,,FF,,,0,0,,dte,,,finalTest,,0,0,85,25621,0.43,850,image-keyboard-response,,,,final Foil,,,,885
dte,571TJo4kc6sWF5MRPX6n,,0,,False,,,2,r,False,False,,,j,T_target,3,,1306,dte,1 (824).jpg,0.0-11.0-10.0-0.17,1,True,True,0,False,True,True,False,True,True,False,7,7,False,,0,,,1,,,,0,,,,,images/1 (824).jpg,B,B,,28,28,0,,dte,,,initialTest_response,18,18,0,96,20544,0.34,524,image-keyboard-response,1,1,0,"current target, not in next trial",,,,885
dte,5JDQfyF0UyYuhvlJHR2y,,0,,False,,,2,r,False,False,,,j,T_target,3,,1306,dte,1 (217).jpg,0.0-8.0-10.0-0.7,1,True,True,0,False,True,True,False,True,True,False,4,4,False,,0,,,1,,,,0,,,,,images/1 (217).jpg,B,B,,26,26,0,,dte,,,initialTest_response,8,8,0,152,16698,0.28,286,image-keyboard-response,1,1,0,"current target, not in next trial",,,,885
dte,5JTMtfJxXMOvQoU7hvmO,,0,,True,,,2,r,False,,False,,f,T_foil,3,,1306,dte,1 (553).jpg,0.0-6.0-10.0-0.1,1,True,False,0,False,False,True,False,True,False,True,2,1,2,,0,,,2,,,,0,,,,,images/1 (553).jpg,Cn,Cn,,0,21,0,,dte,,,initialTest_response,2,0,2,299,14154,0.24,128,image-keyboard-response,1,0,1,"studied only, in next trial, from last trial",,,,885
dte,5MCPQJ45DTv2oWoBcl8o,,,,False,,,2,r,,,,,,T_nontarget,3,,1306,dte,1 (384).jpg,0.0-13.0-2.0-0.16,1,True,True,0,,True,True,False,False,False,False,9,9,0,5,0,,,1,,,,,,,,,images/1 (384).jpg,A,A,,17,17,0,,dte,,,initial_study,0,0,0,244,22373,0.37,631,image-keyboard-response,1,0,0,"studied only, not in trial",,,,885
dte,5Mv67KkFrtfDY92fGLEF,,,,,,,2,r,,,,,,,3,,1306,dte,,0.0-10.0-3.0-0.0,1,,,0,,,,,,,,,,,,,,,,,,,,,,,,Summing up the digits as they appear,,,,,,,,dte,,,prompt,,,,,18792,0.31,417,html-keyboard-response,,,,,,,,885
dte,5NM7Frge2cRbOlC0IISb,,,,False,,,2,r,,,,,,T_target,3,,1306,dte,1 (1203).jpg,0.0-8.0-2.0-0.24,1,True,True,0,,True,True,False,True,True,False,4,4,0,2,0,,,1,,,,,,,,,images/1 (1203).jpg,B,B,,25,25,0,,dte,,,initial_study,13,13,0,71,16307,0.27,259,image-keyboard-response,1,1,0,"current target, not in next trial",,,,885
dte,5NWSPHuKHVuzd28NVmG1,,0,,False,,,2,r,False,False,,,j,T_target,3,,1306,dte,1 (2312).jpg,0.0-8.0-10.0-0.18,1,False,True,0,False,True,True,False,True,True,False,4,4,False,,0,,,1,,,,0,,,,,images/1 (2312).jpg,B,B,,22,22,0,,dte,,,initialTest_response,19,19,0,0,16954,0.28,297,image-keyboard-response,1,1,0,"current target, not in next trial",,,,885
dte,5T8uO23qgIPvmSfWf5VZ,,0,,,,,2,r,False,,,,j,T_foil,3,,1306,dte,1 (1191).jpg,0.0-24.0-1.0-0.24,1,True,,0,True,,False,False,,True,False,,7,False,9,7,,,,,,,0,,,,,images/1 (1191).jpg,,Fn,,,0,0,,dte,,,finalTest,,2,0,421,29705,0.50,1186,image-keyboard-response,,,,"tested only, not in next trial",,,,885
dte,5TjQY3S5PzzCBXzAha7M,,0,,False,,,2,r,False,False,,,j,T_target,3,,1306,dte,1 (1518).jpg,0.0-9.0-10.0-0.11,1,False,True,0,False,True,True,False,True,True,False,5,5,False,,0,,,1,,,,0,,,,,images/1 (1518).jpg,B,B,,11,11,0,,dte,,,initialTest_response,12,12,0,0,17982,0.30,366,image-keyboard-response,1,1,0,"current target, not in next trial",,,,885
dte,5XSZIh9j4wkMQ9Vzb8LZ,,0,,,,,2,r,False,,,,f,F,3,,1306,dte,1 (288).jpg,0.0-22.0-1.0-0.7,1,True,,0,False,,False,False,,False,False,,0,0,7,5,,,1,,,,0,,,,,images/1 (288).jpg,,FF,,,0,0,,dte,,,finalTest,,0,0,308,28302,0.47,1073,image-keyboard-response,,,,final Foil,,,,885
dte,5n7GlRK0Mzwr4WeGIAsY,,0,,,,,2,r,False,,,,f,F,3,,1306,dte,1 (214).jpg,0.0-17.0-1.0-0.16,1,True,,0,False,,False,False,,False,False,,0,0,2,0,,,1,,,,0,,,,,images/1 (214).jpg,,FF,,,0,0,,dte,,,finalTest,,0,0,77,25524,0.43,842,image-keyboard-response,,,,final Foil,,,,885
dte,5npi8PUCFDFjN4hXk4hG,,0,,True,,,2,r,False,False,False,,f,T_foil,3,,1306,dte,1 (2144).jpg,0.0-11.0-10.0-0.23,1,True,False,0,False,False,False,False,True,False,True,7,6,7,,0,,,2,,,,0,,,,,images/1 (2144).jpg,Fnn,Fnn,,0,0,0,,dte,,,initialTest_response,24,0,24,49,20675,0.35,530,image-keyboard-response,0,1,1,"tested only, in next trial, from last trial",,,,885
dte,5uBiOAeTl3xzCXNvgwdW,,,,False,,,2,r,,,,,,T_nontarget,3,,1306,dte,1 (1591).jpg,0.0-5.0-2.0-0.3,1,True,True,0,,True,True,False,False,False,False,1,1,0,1,0,,,1,,,,,,,,,images/1 (1591).jpg,A,A,,4,4,0,,dte,,,initial_study,0,0,0,18,12257,0.21,10,image-keyboard-response,1,0,0,"studied only, not in trial",,,,1395
dte,5xxFWEH97Cp0k3s5LDiJ,,,,False,,,2,r,,,,,,T_nontarget,3,,1306,dte,1 (862).jpg,0.0-10.0-2.0-0.22,1,True,True,0,,True,True,False,False,False,False,6,6,0,1,0,,,1,,,,,,,,,images/1 (862).jpg,A,A,,23,23,0,,dte,,,initial_study,0,0,0,53,18698,0.31,409,image-keyboard-response,1,0,0,"studied only, not in trial",,,,885
dte,5y5Hh80ExClOnr464dOP,,,,False,,,2,r,,,,,,T_target,3,,1306,dte,1 (1177).jpg,0.0-10.0-2.0-0.7,1,True,True,0,,True,True,False,True,True,False,6,6,0,4,0,,,1,,,,,,,,,images/1 (1177).jpg,B,B,,8,8,0,,dte,,,initial_study,25,25,0,195,18516,0.31,394,image-keyboard-response,1,1,0,"current target, not in next trial",,,,885
dte,5zEjHo4HAzNR9SWUH3E0,,,,False,,,2,r,,,,,,T_nontarget,3,,1306,dte,1 (1261).jpg,0.0-12.0-2.0-0.28,1,True,True,0,,True,True,False,False,False,False,8,8,0,5,0,,,1,,,,,,,,,images/1 (1261).jpg,A,A,,29,29,0,,dte,,,initial_study,0,0,0,222,21187,0.35,567,image-keyboard-response,1,0,0,"studied only, not in trial",,,,885
dte,62D3dFLsrEE6yHEIGNWt,,0,,,,,2,r,False,,,,j,T_target,3,,1306,dte,1 (1255).jpg,0.0-18.0-1.0-0.30,1,True,,0,True,,True,False,,True,False,,5,0,3,0,,,,,,,0,,,,,images/1 (1255).jpg,,B,,,20,0,,dte,,,finalTest,,10,0,139,26278,0.44,904,image-keyboard-response,,,,"current target, not in next trial",,,,885
dte,64CfJPa3H49wGXG13UOx,,,,False,,,2,r,,,,,,T_target,3,,1306,dte,1 (2125).jpg,0.0-11.0-2.0-0.7,1,True,True,0,,True,True,False,True,True,False,7,7,0,6,0,,,1,,,,,,,,,images/1 (2125).jpg,B,B,,8,8,0,,dte,,,initial_study,10,10,0,282,19745,0.33,470,image-keyboard-response,1,1,0,"current target, not in next trial",,,,885
dte,66jnYPK6raJRjmu3AyD2,,,,False,,,2,r,,,,,,T_nontarget,3,,1306,dte,1 (822).jpg,0.0-9.0-2.0-0.23,1,False,True,0,,True,True,False,False,False,False,5,5,0,,0,,,1,,,,,,,,,images/1 (822).jpg,A,A,,24,24,0,,dte,,,initial_study,0,0,0,0,17503,0.29,334,image-keyboard-response,1,0,0,"studied only, not in trial",,,,885
dte,69qwArKZ6yRgLO6Qc0WY,,0,,,,,2,r,False,,,,f,F,3,,1306,dte,1 (894).jpg,0.0-16.0-1.0-0.33,1,True,,0,False,,False,False,,False,False,,0,0,1,2,,,1,,,,0,,,,,images/1 (894).jpg,,FF,,,0,0,,dte,,,finalTest,,0,0,34,24999,0.42,799,image-keyboard-response,,,,final Foil,,,,885
dte,69y6F50LLjif1r7XPw8v,,0,,,,,2,r,False,,,,f,F,3,,1306,dte,1 (1394).jpg,0.0-17.0-1.0-0.0,1,True,,0,False,,False,False,,False,False,,0,0,2,7,,,1,,,,0,,,,,images/1 (1394).jpg,,FF,,,0,0,,dte,,,finalTest,,0,0,61,25331,0.42,826,image-keyboard-response,,,,final Foil,,,,885
dte,6FRgyV82ufWHo2MepeTX,,,,,,,2,r,,,,,,,3,,1306,dte,,0.0-10.0-9.0-0.0,1,,,0,,,,,,,,,,,,,,,,,,,,,,,,"<div style=""font-size:60px;"">+</div>",,,,,,,,dte,,,fixation,,,,,18934,0.32,430,html-keyboard-response,,,,,,,,885
dte,6JpyfSVSBkc5iizUFWSd,,,,,,,2,r,,,,,,,3,,1306,dte,,0.0-13.0-5.0-0.6,1,,,0,,,,,,,,9,,,,,,,,,7,,,,,,,4,,,4,,,,,dte,,47,digitPresentation,,,,,22630,0.38,653,html-keyboard-response,,,,,,,,885
dte,6KegMVV018gj1wX4OuD9,,0,,False,,,2,r,False,False,,,j,T_target,3,,1306,dte,1 (77).jpg,0.0-13.0-10.0-0.12,1,False,True,0,False,True,True,False,True,True,False,9,9,False,,0,,,1,,,,0,,,,,images/1 (77).jpg,B,B,,9,9,0,,dte,,,initialTest_response,13,13,0,0,22963,0.38,671,image-keyboard-response,1,1,0,"current target, not in next trial",,,,885
dte,6NpoNFejbFgX3S2auBv5,,0,,,,,2,r,False,,,,j,T_nontarget,3,,1306,dte,1 (153).jpg,0.0-16.0-1.0-0.6,1,True,,0,True,,True,False,,False,False,,6,0,1,0,,,,,,,0,,,,,images/1 (153).jpg,,A,,,24,0,,dte,,,finalTest,,0,0,7,24668,0.41,772,image-keyboard-response,,,,"studied only, not in trial",,,,885
dte,6TBbJg63TSZfUM0HXCaT,,,,False,,,2,r,,,,,,T_nontarget,3,,1306,dte,1 (2032).jpg,0.0-14.0-2.0-0.5,1,True,True,0,,True,True,False,False,False,False,10,10,0,7,0,,,1,,,,,,,,,images/1 (2032).jpg,A,A,,6,6,0,,dte,,,initial_study,0,0,0,334,23445,0.39,696,image-keyboard-response,1,0,0,"studied only, not in trial",,,,885
dte,6Vg3kw61XCdmgZmg7ypX,,0,,,,,2,r,False,False,False,,j,T_target,3,,1306,dte,1 (942).jpg,0.0-21.0-1.0-0.8,1,True,,0,True,,True,False,,True,False,,9,0,6,0,,,,,,,0,,,,,images/1 (942).jpg,,Dn,,,29,0,,dte,,,finalTest,,8,0,261,27732,0.46,1026,image-keyboard-response,,,,"current target, in next trial",,,,885
dte,6W7hOEVxLktCKjfps3h0,,0,,,,,2,r,False,,,,f,F,3,,1306,dte,1 (1489).jpg,0.0-22.0-1.0-0.21,1,True,,0,False,,False,False,,False,False,,0,0,7,6,,,1,,,,0,,,,,images/1 (1489).jpg,,FF,,,0,0,,dte,,,finalTest,,0,0,322,28480,0.48,1087,image-keyboard-response,,,,final Foil,,,,885
dte,6WDJzt9bWlgdn4KKUtMb,,0,,,,,2,r,False,,,,j,T_target,3,,1306,dte,1 (1092).jpg,0.0-21.0-1.0-0.38,1,True,,0,True,,True,False,,True,False,,2,0,6,0,,,,,,,0,,,,,images/1 (1092).jpg,,B,,,22,0,,dte,,,finalTest,,30,0,291,28097,0.47,1056,image-keyboard-response,,,,"current target, not in next trial",,,,885
dte,6XRWMtk9Bsjlh4tOLBU4,,,,True,,,2,r,,,,,,T_target,3,,1306,dte,1 (1218).jpg,0.0-9.0-2.0-0.8,1,False,True,0,,True,True,False,True,True,True,5,5,6,,0,,,1,,,,,,,,,images/1 (1218).jpg,Dn+1,Dn,,9,9,0,,dte,,,initial_study,8,8,1,0,17328,0.29,319,image-keyboard-response,1,1,1,"current target, in next trial",,,,885
dte,6XXtPmiBQoa1gX8JCYRv,,0,,True,,,2,r,False,False,,,f,T_foil,3,,1306,dte,1 (436).jpg,0.0-12.0-10.0-0.7,1,True,True,0,False,False,False,False,True,True,True,8,8,9,5,0,,,1,,,,0,,,,,images/1 (436).jpg,Fnn+1,Fnn,,0,0,0,,dte,,,initialTest_response,8,8,25,224,21528,0.36,590,image-keyboard-response,0,1,1,"tested only, in next trial",,,,885
dte,6Xh4OE5Seb2w8NzUJUa4,,0,,True,,,2,r,False,False,,,j,T_target,3,,1306,dte,1 (1218).jpg,0.0-9.0-10.0-0.7,1,False,True,0,False,True,True,False,True,True,True,5,5,6,,0,,,1,,,,0,,,,,images/1 (1218).jpg,Dn+1,Dn,,9,9,0,,dte,,,initialTest_response,8,8,1,0,17894,0.30,362,image-keyboard-response,1,1,1,"current target, in next trial",,,,885
dte,6agRmmKmZhZcBU2OQqdV,,0,,True,,,2,r,False,False,False,,f,T_foil,3,,1306,dte,1 (2208).JPG,0.0-13.0-10.0-0.21,1,False,False,0,False,False,False,False,True,False,True,9,8,9,,0,,,2,,,,0,,,,,images/1 (2208).JPG,Fnn,Fnn,,0,0,0,,dte,,,initialTest_response,22,0,22,0,23159,0.39,680,image-keyboard-response,0,1,1,"tested only, in next trial, from last trial",,,,885
dte,6dBc3GuFsMisqPTPxscu,,0,,,,,2,r,False,,,,f,F,3,,1306,dte,1 (591).jpg,0.0-18.0-1.0-0.20,1,True,,0,False,,False,False,,False,False,,0,0,3,2,,,1,,,,0,,,,,images/1 (591).jpg,,FF,,,0,0,,dte,,,finalTest,,0,0,129,26151,0.44,894,image-keyboard-response,,,,final Foil,,,,885
dte,6jdSORBi2XE82cBjfJFq,,0,,,,,2,r,False,,,,f,F,3,,1306,dte,1 (2064).jpg,0.0-16.0-1.0-0.46,1,True,,0,False,,False,False,,False,False,,0,0,1,10,,,1,,,,0,,,,,images/1 (2064).jpg,,FF,,,0,0,,dte,,,finalTest,,0,0,47,25147,0.42,812,image-keyboard-response,,,,final Foil,,,,885
dte,6lTveceEGmP7WDbgW2Wi,,0,,,,,2,r,False,,,,j,T_target,3,,1306,dte,1 (2315).jpg,0.0-19.0-1.0-0.0,1,True,,0,True,,True,False,,True,False,,10,0,4,0,,,,,,,0,,,,,images/1 (2315).jpg,,B,,,15,0,,dte,,,finalTest,,15,0,157,26492,0.44,922,image-keyboard-response,,,,"current target, not in next trial",,,,885
dte,6lrU4xITgJExGWIDPX0S,,0,,,,,2,r,False,,,,j,T_target,3,,1306,dte,1 (2125).jpg,0.0-21.0-1.0-0.29,1,True,,0,True,,True,False,,True,False,,7,0,6,0,,,,,,,0,,,,,images/1 (2125).jpg,,B,,,8,0,,dte,,,finalTest,,10,0,282,27986,0.47,1047,image-keyboard-response,,,,"current target, not in next trial",,,,885
dte,6m8PacYwsePt4pIPiiy6,,0,,,,,2,r,False,,,,f,F,3,,1306,dte,1 (1881).jpg,0.0-23.0-1.0-0.44,1,True,,0,False,,False,False,,False,False,,0,0,8,5,,,1,,,,0,,,,,images/1 (1881).jpg,,FF,,,0,0,,dte,,,finalTest,,0,0,393,29365,0.49,1158,image-keyboard-response,,,,final Foil,,,,885
dte,6yhx9m8d21rZNmhC62Xy,,0,,,,,2,r,False,,,,f,F,3,,1306,dte,1 (1540).jpg,0.0-24.0-1.0-0.1,1,True,,0,False,,False,False,,False,False,,0,0,9,1,,,1,,,,0,,,,,images/1 (1540).jpg,,FF,,,0,0,,dte,,,finalTest,,0,0,398,29419,0.49,1163,image-keyboard-response,,,,final Foil,,,,885
dte,73j5Zi5ufIwrEzk0gcmQ,,0,,,,,2,r,False,,,,f,F,3,,1306,dte,1 (1531).jpg,0.0-18.0-1.0-0.10,1,True,,0,False,,False,False,,False,False,,0,0,3,0,,,1,,,,0,,,,,images/1 (1531).jpg,,FF,,,0,0,,dte,,,finalTest,,0,0,119,26039,0.43,884,image-keyboard-response,,,,final Foil,,,,885
dte,73rm0gwdSHraiFYW7jYZ,,,,False,,,2,r,,,,,,T_nontarget,3,,1306,dte,1 (842).jpg,0.0-5.0-2.0-0.23,1,False,True,0,,True,True,False,False,False,False,1,1,0,,0,,,1,,,,,,,,,images/1 (842).jpg,A,A,,24,24,0,,dte,,,initial_study,0,0,0,0,12591,0.21,30,image-keyboard-response,1,0,0,"studied only, not in trial",,,,1395
dte,76fJl5LvnG0XeDknpXFe,,0,,,,,2,r,False,,,,f,F,3,,1306,dte,1 (2294).jpg,0.0-24.0-1.0-0.33,1,True,,0,False,,False,False,,False,False,,0,0,9,0,,,1,,,,0,,,,,images/1 (2294).jpg,,FF,,,0,0,,dte,,,finalTest,,0,0,430,29809,0.50,1195,image-keyboard-response,,,,final Foil,,,,885
dte,771Hy9YluYbO86k8lKXW,,0,,,,,2,r,False,,,,f,F,3,,1306,dte,1 (40).jpg,0.0-24.0-1.0-0.0,1,True,,0,False,,False,False,,False,False,,0,0,9,2,,,1,,,,0,,,,,images/1 (40).jpg,,FF,,,0,0,,dte,,,finalTest,,0,0,397,29408,0.49,1162,image-keyboard-response,,,,final Foil,,,,885
dte,7BD1OU7WqEMUAZmvUHx0,,0,,False,,,2,r,False,False,,,j,T_target,3,,1306,dte,1 (1639).jpg,0.0-10.0-10.0-0.27,1,True,True,0,False,True,True,False,True,True,False,6,6,False,,0,,,1,,,,0,,,,,images/1 (1639).jpg,B,B,,20,20,0,,dte,,,initialTest_response,28,28,0,423,19561,0.33,458,image-keyboard-response,1,1,0,"current target, not in next trial",,,,885
dte,7BjDZEFr6OU0Gw0cnzNN,,,,False,,,2,r,,,,,,T_nontarget,3,,1306,dte,1 (1068).jpg,0.0-14.0-2.0-0.20,1,True,True,0,,True,True,False,False,False,False,10,10,0,5,0,,,1,,,,,,,,,images/1 (1068).jpg,A,A,,21,21,0,,dte,,,initial_study,0,0,0,217,23634,0.39,711,image-keyboard-response,1,0,0,"studied only, not in trial",,,,885
dte,7Nx4i06meQQfDI3lKM7K,,0,,,,,2,r,False,,,,f,F,3,,1306,dte,1 (60).jpg,0.0-20.0-1.0-0.41,1,True,,0,False,,False,False,,False,False,,0,0,5,4,,,1,,,,0,,,,,images/1 (60).jpg,,FF,,,0,0,,dte,,,finalTest,,0,0,246,27551,0.46,1011,image-keyboard-response,,,,final Foil,,,,885
dte,7OT7Ev3OYcwLffCAU5TY,,0,,,,,2,r,False,,,,f,F,3,,1306,dte,1 (2060).jpg,0.0-18.0-1.0-0.25,1,True,,0,False,,False,False,,False,False,,0,0,3,6,,,1,,,,0,,,,,images/1 (2060).jpg,,FF,,,0,0,,dte,,,finalTest,,0,0,134,26218,0.44,899,image-keyboard-response,,,,final Foil,,,,885
dte,7TJsZLnFxRqDPgVzCjEd,,0,,,,,2,r,False,,,,j,T_target,3,,1306,dte,1 (532).jpg,0.0-23.0-1.0-0.38,1,True,,0,True,,True,False,,True,False,,9,0,8,0,,,,,,,0,,,,,images/1 (532).jpg,,B,,,2,0,,dte,,,finalTest,,20,0,387,29290,0.49,1152,image-keyboard-response,,,,"current target, not in next trial",,,,885
dte,7VUdXAiofKiw7hBp7uIQ,,,,False,,,2,r,,,,,,T_nontarget,3,,1306,dte,1 (1182).jpg,0.0-6.0-2.0-0.6,1,True,True,0,,True,True,False,False,False,False,2,2,0,5,0,,,1,,,,,,,,,images/1 (1182).jpg,A,A,,7,7,0,,dte,,,initial_study,0,0,0,229,13709,0.23,89,image-keyboard-response,1,0,0,"studied only, not in trial",,,,1395
dte,7XDze6hakrBH1z8klDA7,,0,,False,,,2,r,False,False,,,j,T_target,3,,1306,dte,1 (1035).jpg,0.0-8.0-10.0-0.1,1,True,True,0,False,True,True,False,True,True,False,4,4,False,,0,,,1,,,,0,,,,,images/1 (1035).jpg,B,B,,16,16,0,,dte,,,initialTest_response,2,2,0,358,16558,0.28,280,image-keyboard-response,1,1,0,"current target, not in next trial",,,,885
dte,7Y6gCeu0thCAxyFH3CAt,,0,,False,,,2,r,False,False,,,j,T_target,3,,1306,dte,1 (1358).jpg,0.0-6.0-10.0-0.13,1,False,True,0,False,True,True,False,True,True,False,2,2,False,,0,,,1,,,,0,,,,,images/1 (1358).jpg,B,B,,15,15,0,,dte,,,initialTest_response,14,14,0,0,14413,0.24,140,image-keyboard-response,1,1,0,"current target, not in next trial",,,,885
dte,7YPLlwNqKwca63TROaVR,,,,,,,2,r,,,,,,,3,,1306,dte,,0.0-6.0-3.0-0.0,1,,,0,,,,,,,,,,,,,,,,,,,,,,,,Summing up the digits as they appear,,,,,,,,dte,,,prompt,,,,,13983,0.23,113,html-keyboard-response,,,,,,,,1395
dte,7bNvBgPsrwMdZM4sMzKX,,0,,,,,2,r,False,,,,j,T_nontarget,3,,1306,dte,1 (1193).jpg,0.0-23.0-1.0-0.1,1,True,,0,True,,True,False,,False,False,,2,0,8,0,,,,,,,0,,,,,images/1 (1193).jpg,,A,,,29,0,,dte,,,finalTest,,0,0,350,28836,0.48,1115,image-keyboard-response,,,,"studied only, not in trial",,,,885
dte,7bks82dJCaX6NdEEvwEY,,,,False,,,2,r,,,,,,T_nontarget,3,,1306,dte,1 (1481).jpg,0.0-5.0-2.0-0.19,1,True,True,0,,True,True,False,False,False,False,1,1,0,1,0,,,1,,,,,,,,,images/1 (1481).jpg,A,A,,20,20,0,,dte,,,initial_study,0,0,0,31,12524,0.21,26,image-keyboard-response,1,0,0,"studied only, not in trial",,,,1395
dte,7gqbiMNEKRvyRSV3UWPH,,,,False,,,2,r,,,,,,T_nontarget,3,,1306,dte,1 (1793).jpg,0.0-13.0-2.0-0.2,1,True,True,0,,True,True,False,False,False,False,9,9,0,4,0,,,1,,,,,,,,,images/1 (1793).jpg,A,A,,3,3,0,,dte,,,initial_study,0,0,0,189,22213,0.37,617,image-keyboard-response,1,0,0,"studied only, not in trial",,,,885
dte,7jwpByUXyFH59hur30Vs,,0,,True,,,2,r,False,False,,,f,T_foil,3,,1306,dte,1 (1586).jpg,0.0-5.0-10.0-0.21,1,True,True,0,False,False,False,False,True,True,True,1,1,2,9,0,,,1,,,,0,,,,,images/1 (1586).jpg,Fnn+1,Fnn,,0,0,0,,dte,,,initialTest_response,22,22,25,404,13425,0.22,72,image-keyboard-response,0,1,1,"tested only, in next trial",,,,885
dte,7mHeXFWfN59PCRTBKw08,,0,,False,,,2,r,False,False,,,f,T_foil,3,,1306,dte,1 (2308).jpg,0.0-14.0-10.0-0.23,1,False,True,0,False,False,False,False,True,True,False,10,10,0,,0,,,1,,,,0,,,,,images/1 (2308).jpg,Fn+1,Fn,,0,0,0,,dte,,,initialTest_response,24,24,0,0,24437,0.41,758,image-keyboard-response,0,1,0,"tested only, not in next trial",,,,885
dte,7nyYxfmHQDz5AwG0sCWF,,,,False,,,2,r,,,,,,T_target,3,,1306,dte,1 (824).jpg,0.0-11.0-2.0-0.27,1,True,True,0,,True,True,False,True,True,False,7,7,0,2,0,,,1,,,,,,,,,images/1 (824).jpg,B,B,,28,28,0,,dte,,,initial_study,18,18,0,96,19975,0.33,490,image-keyboard-response,1,1,0,"current target, not in next trial",,,,885
dte,7o3oyMxws7znRkOYmcAy,,0,,,,,2,r,False,,,,j,T_nontarget,3,,1306,dte,1 (1611).jpg,0.0-18.0-1.0-0.23,1,True,,0,True,,True,False,,False,False,,3,0,3,0,,,,,,,0,,,,,images/1 (1611).jpg,,A,,,19,0,,dte,,,finalTest,,0,0,132,26188,0.44,897,image-keyboard-response,,,,"studied only, not in trial",,,,885
dte,7p2puKND1XuKFPS1FZ0F,,,,False,,,2,r,,,,,,T_target,3,,1306,dte,1 (1794).jpg,0.0-10.0-2.0-0.11,1,True,True,0,,True,True,False,True,True,False,6,6,0,6,0,,,1,,,,,,,,,images/1 (1794).jpg,B,B,,12,12,0,,dte,,,initial_study,17,17,0,255,18567,0.31,398,image-keyboard-response,1,1,0,"current target, not in next trial",,,,885
dte,7uxA54GrPqsBeUSGTTca,,0,,True,,,2,r,False,,False,,f,T_foil,3,,1306,dte,1 (1387).jpg,0.0-8.0-10.0-0.29,1,False,False,0,False,False,True,False,True,False,True,4,3,4,,0,,,2,,,,0,,,,,images/1 (1387).jpg,Cn,Cn,,0,6,0,,dte,,,initialTest_response,30,0,30,0,17196,0.29,308,image-keyboard-response,1,0,1,"studied only, in next trial, from last trial",,,,885
dte,814ZctMLztAjfZRNxXYr,,0,,False,,,2,r,False,False,,,j,T_target,3,,1306,dte,1 (2315).jpg,0.0-14.0-10.0-0.14,1,True,True,0,False,True,True,False,True,True,False,10,10,0,,0,,,1,,,,0,,,,,images/1 (2315).jpg,B,B,,15,15,0,,dte,,,initialTest_response,15,15,0,157,24231,0.40,749,image-keyboard-response,1,1,0,"current target, not in next trial",,,,885
dte,818JzMN5EvQJUiVLJIim,,,,False,,,2,r,,,,,,T_target,3,,1306,dte,1 (1672).jpg,0.0-9.0-2.0-0.11,1,False,True,0,,True,True,False,True,True,False,5,5,0,,0,,,1,,,,,,,,,images/1 (1672).jpg,B,B,,12,12,0,,dte,,,initial_study,18,18,0,0,17371,0.29,322,image-keyboard-response,1,1,0,"current target, not in next trial",,,,885
dte,84r4FlwfT885sao59BAw,,0,,,,,2,r,False,,,,f,F,3,,1306,dte,1 (2322).jpg,0.0-25.0-1.0-0.12,1,True,,0,False,,False,False,,False,False,,0,0,10,9,,,1,,,,0,,,,,images/1 (2322).jpg,,FF,,,0,0,,dte,,,finalTest,,0,0,457,30141,0.50,1222,image-keyboard-response,,,,final Foil,,,,885
dte,890KIsL8Xaidy7Iesimk,,0,,,,,2,r,False,,False,,j,T_nontarget,3,,1306,dte,1 (2158).jpg,0.0-20.0-1.0-0.3,1,True,,0,True,,True,False,,False,True,,6,7,5,0,,,,,,,0,,,,,images/1 (2158).jpg,,Cn,,,7,0,,dte,,,finalTest,,0,27,208,27084,0.45,973,image-keyboard-response,,,,"studied only, in next trial",,,,885
dte,89qRQ6ctrQBGek34M2RG,,0,,True,,,2,r,False,False,False,,f,T_foil,3,,1306,dte,1 (921).jpg,0.0-9.0-10.0-0.12,1,True,False,0,False,False,False,False,True,False,True,5,4,5,,0,,,2,,,,0,,,,,images/1 (921).jpg,Fnn,Fnn,,0,0,0,,dte,,,initialTest_response,13,0,13,312,18009,0.30,367,image-keyboard-response,0,1,1,"tested only, in next trial, from last trial",,,,885
dte,8AJ5o3U2FrAdOal4aGnL,,,,False,,,2,r,,,,,,T_target,3,,1306,dte,1 (2130).jpg,0.0-10.0-2.0-0.9,1,True,True,0,,True,True,False,True,True,False,6,6,0,10,0,,,1,,,,,,,,,images/1 (2130).jpg,B,B,,10,10,0,,dte,,,initial_study,30,30,0,478,18540,0.31,396,image-keyboard-response,1,1,0,"current target, not in next trial",,,,885
dte,8EcDEcPAzXyKfteiANBM,,,,False,,,2,r,,,,,,T_nontarget,3,,1306,dte,1 (1155).jpg,0.0-12.0-2.0-0.13,1,True,True,0,,True,True,False,False,False,False,8,8,0,5,0,,,1,,,,,,,,,images/1 (1155).jpg,A,A,,14,14,0,,dte,,,initial_study,0,0,0,251,21015,0.35,552,image-keyboard-response,1,0,0,"studied only, not in trial",,,,885
dte,8FoOjHhirKOwl4mmtUOo,,,,False,,,2,r,,,,,,T_nontarget,3,,1306,dte,1 (1382).jpg,0.0-6.0-2.0-0.24,1,True,True,0,,True,True,False,False,False,False,2,2,0,9,0,,,1,,,,,,,,,images/1 (1382).jpg,A,A,,25,25,0,,dte,,,initial_study,0,0,0,399,13919,0.23,107,image-keyboard-response,1,0,0,"studied only, not in trial",,,,1395
dte,8H2sBwhJuIGvtY8cfKNE,,0,,,,,2,r,False,,,,f,F,3,,1306,dte,1 (203).jpg,0.0-25.0-1.0-0.43,1,True,,0,False,,False,False,,False,False,,0,0,10,3,,,1,,,,0,,,,,images/1 (203).jpg,,FF,,,0,0,,dte,,,finalTest,,0,0,488,30507,0.51,1253,image-keyboard-response,,,,final Foil,,,,885
dte,8I84Cs6c5317xD1VUdnM,,0,,False,,,2,r,False,False,,,j,T_target,3,,1306,dte,1 (518).jpg,0.0-5.0-10.0-0.24,1,True,True,0,False,True,True,False,True,True,False,1,1,False,,0,,,1,,,,0,,,,,images/1 (518).jpg,B,B,,12,12,0,,dte,,,initialTest_response,25,25,0,266,13488,0.23,75,image-keyboard-response,1,1,0,"current target, not in next trial",,,,885
dte,8Rqh9EiQT5IIpIZL3Gjg,,,,False,,,2,r,,,,,,T_nontarget,3,,1306,dte,1 (2265).jpg,0.0-13.0-2.0-0.3,1,True,True,0,,True,True,False,False,False,False,9,9,0,10,0,,,1,,,,,,,,,images/1 (2265).jpg,A,A,,4,4,0,,dte,,,initial_study,0,0,0,475,22224,0.37,618,image-keyboard-response,1,0,0,"studied only, not in trial",,,,885
dte,8UQYrewSE6q3eS1jqZUZ,,0,,,,,2,r,False,,,,f,F,3,,1306,dte,1 (2157).jpg,0.0-16.0-1.0-0.53,1,True,,0,False,,False,False,,False,False,,0,0,1,2,,,1,,,,0,,,,,images/1 (2157).jpg,,FF,,,0,0,,dte,,,finalTest,,0,0,54,25244,0.42,819,image-keyboard-response,,,,final Foil,,,,885
dte,8YfL6xKsEbsmdBTGVebt,,0,,,,,2,r,False,,,,f,F,3,,1306,dte,1 (1598).jpg,0.0-24.0-1.0-0.32,1,True,,0,False,,False,False,,False,False,,0,0,9,7,,,1,,,,0,,,,,images/1 (1598).jpg,,FF,,,0,0,,dte,,,finalTest,,0,0,429,29797,0.50,1194,image-keyboard-response,,,,final Foil,,,,885
dte,8ZIi4EGJSLvjKTNuHUF1,,,,False,,,2,r,,,,,,T_target,3,,1306,dte,1 (133).jpg,0.0-5.0-2.0-0.8,1,True,True,0,,True,True,False,True,True,False,1,1,0,7,0,,,1,,,,,,,,,images/1 (133).jpg,B,B,,9,9,0,,dte,,,initial_study,24,24,0,331,12340,0.21,15,image-keyboard-response,1,1,0,"current target, not in next trial",,,,1395
dte,8ZU5j7gNKfjaR29nGCsv,,0,,,,,2,r,False,,,,j,T_foil,3,,1306,dte,1 (1298).jpg,0.0-19.0-1.0-0.6,1,True,,0,True,,False,False,,True,False,,7,False,4,7,,,,,,,0,,,,,images/1 (1298).jpg,,Fn,,,0,0,,dte,,,finalTest,,29,0,163,26563,0.44,928,image-keyboard-response,,,,"tested only, not in next trial",,,,885
dte,8ca6BpCtMvWNTzWl6abT,,,,True,,,2,r,,,,,,T_target,3,,1306,dte,1 (160).jpg,0.0-6.0-2.0-0.2,1,True,True,0,,True,True,False,True,True,True,2,2,3,8,0,,,1,,,,,,,,,images/1 (160).jpg,Dn+1,Dn,,3,3,0,,dte,,,initial_study,21,21,27,396,13664,0.23,85,image-keyboard-response,1,1,1,"current target, in next trial",,,,1395
dte,8hDqyeMbEMUdop07EGkK,,,,,,,2,r,,,,,,,3,,1306,dte,,0.0-11.0-5.0-0.4,1,,,0,,,,,,,,7,,,,,,,,,5,,,,,,,4,,,4,,,,,dte,,37,digitPresentation,,,,,20076,0.34,499,html-keyboard-response,,,,,,,,885
dte,8kP2xxrIbVk7ZR6iKHGh,,0,,,,,2,r,False,,,,f,F,3,,1306,dte,1 (1644).jpg,0.0-20.0-1.0-0.1,1,True,,0,False,,False,False,,False,False,,0,0,5,0,,,1,,,,0,,,,,images/1 (1644).jpg,,FF,,,0,0,,dte,,,finalTest,,0,0,206,27062,0.45,971,image-keyboard-response,,,,final Foil,,,,885
dte,8lTU3tlAG0ZgGcLp5BPt,,,,True,,,2,r,,,,,,T_nontarget,3,,1306,dte,1 (2114).jpg,0.0-13.0-2.0-0.27,1,False,True,0,,True,True,False,False,False,True,9,9,10,,0,,,1,,,,,,,,,images/1 (2114).jpg,Cn+1,Cn,,28,28,0,,dte,,,initial_study,0,0,9,0,22498,0.38,642,image-keyboard-response,1,0,1,"studied only, in next trial",,,,885
dte,8mpQ38OSwHtfDll9weW7,,0,,False,,,2,r,False,False,,,j,T_target,3,,1306,dte,1 (105).jpg,0.0-5.0-10.0-0.3,1,False,True,0,False,True,True,False,True,True,False,1,1,False,,0,,,1,,,,0,,,,,images/1 (105).jpg,B,B,,14,14,0,,dte,,,initialTest_response,4,4,0,0,13045,0.22,54,image-keyboard-response,1,1,0,"current target, not in next trial",,,,1395
dte,8mz4b6VTy7qksWgc463c,,0,,,,,2,r,False,,,,f,F,3,,1306,dte,1 (1406).jpg,0.0-21.0-1.0-0.36,1,True,,0,False,,False,False,,False,False,,0,0,6,5,,,1,,,,0,,,,,images/1 (1406).jpg,,FF,,,0,0,,dte,,,finalTest,,0,0,289,28067,0.47,1054,image-keyboard-response,,,,final Foil,,,,885
dte,8okvnLubT7GHgve34RsE,,,,False,,,2,r,,,,,,T_target,3,,1306,dte,1 (420).jpg,0.0-6.0-2.0-0.5,1,True,True,0,,True,True,False,True,True,False,2,2,0,8,0,,,1,,,,,,,,,images/1 (420).jpg,B,B,,6,6,0,,dte,,,initial_study,26,26,0,385,13698,0.23,88,image-keyboard-response,1,1,0,"current target, not in next trial",,,,1395
dte,8ouTsKaf13Fz5y3kcQz5,,0,,,,,2,r,False,,,,j,T_target,3,,1306,dte,1 (1827).jpg,0.0-23.0-1.0-0.3,1,True,,0,True,,True,False,,True,False,,2,0,8,0,,,,,,,0,,,,,images/1 (1827).jpg,,B,,,20,0,,dte,,,finalTest,,16,0,352,28859,0.48,1117,image-keyboard-response,,,,"current target, not in next trial",,,,885
dte,8sRCSlGKrvFraDWP8h85,,0,,True,,,2,r,False,False,,,f,T_foil,3,,1306,dte,1 (1393).jpg,0.0-12.0-10.0-0.6,1,True,True,0,False,False,False,False,True,True,True,8,8,9,3,0,,,1,,,,0,,,,,images/1 (1393).jpg,Fnn+1,Fnn,,0,0,0,,dte,,,initialTest_response,7,7,1,124,21501,0.36,589,image-keyboard-response,0,1,1,"tested only, in next trial",,,,885
dte,8xHICrcsRZEs6PDptBen,,0,,,,,2,r,False,,False,,j,T_nontarget,3,,1306,dte,1 (553).jpg,0.0-21.0-1.0-0.46,1,True,,0,True,,True,False,,False,True,,1,2,6,0,,,,,,,0,,,,,images/1 (553).jpg,,Cn,,,21,0,,dte,,,finalTest,,0,2,299,28190,0.47,1064,image-keyboard-response,,,,"studied only, in next trial",,,,885
dte,8xjKx7xWP5I2gelt3ASS,,0,,,,,2,r,False,,,,f,F,3,,1306,dte,1 (411).jpg,0.0-19.0-1.0-0.8,1,True,,0,False,,False,False,,False,False,,0,0,4,3,,,1,,,,0,,,,,images/1 (411).jpg,,FF,,,0,0,,dte,,,finalTest,,0,0,165,26585,0.44,930,image-keyboard-response,,,,final Foil,,,,885
dte,92lf0biLyokVoRb29H1L,,0,,True,,,2,r,False,False,,,j,T_target,3,,1306,dte,1 (216).jpg,0.0-7.0-10.0-0.19,1,True,True,0,False,True,True,False,True,True,True,3,3,4,,0,,,1,,,,0,,,,,images/1 (216).jpg,Dn+1,Dn,,5,5,0,,dte,,,initialTest_response,20,20,9,473,15748,0.26,222,image-keyboard-response,1,1,1,"current target, in next trial",,,,885
dte,9AocbQXkqpiAej2EpxrP,,0,,,,,2,r,False,,,,j,T_nontarget,3,,1306,dte,1 (1382).jpg,0.0-24.0-1.0-0.2,1,True,,0,True,,True,False,,False,False,,2,0,9,0,,,,,,,0,,,,,images/1 (1382).jpg,,A,,,25,0,,dte,,,finalTest,,0,0,399,29431,0.49,1164,image-keyboard-response,,,,"studied only, not in trial",,,,885
dte,9B7RHlH7hRqjqmCBf5o8,,0,,,,,2,r,False,,,,f,F,3,,1306,dte,1 (1595).jpg,0.0-23.0-1.0-0.11,1,True,,0,False,,False,False,,False,False,,0,0,8,0,,,1,,,,0,,,,,images/1 (1595).jpg,,FF,,,0,0,,dte,,,finalTest,,0,0,360,28953,0.48,1125,image-keyboard-response,,,,final Foil,,,,885
dte,9EWCt2SKy4smjc5LHSB2,,0,,,,,2,r,False,,,,j,T_nontarget,3,,1306,dte,1 (881).jpg,0.0-22.0-1.0-0.5,1,True,,0,True,,True,False,,False,False,,5,0,7,0,,,,,,,0,,,,,images/1 (881).jpg,,A,,,6,0,,dte,,,finalTest,,0,0,306,28280,0.47,1071,image-keyboard-response,,,,"studied only, not in trial",,,,885
dte,9EhHGPagsNHfRnHSOh9g,,,,False,,,2,r,,,,,,T_target,3,,1306,dte,1 (1183).jpg,0.0-12.0-2.0-0.18,1,True,True,0,,True,True,False,True,True,False,8,8,0,5,0,,,1,,,,,,,,,images/1 (1183).jpg,B,B,,19,19,0,,dte,,,initial_study,17,17,0,241,21073,0.35,557,image-keyboard-response,1,1,0,"current target, not in next trial",,,,885
dte,9JZt0ucj2r8fVRPqRB0H,,0,,,,,2,r,False,,,,j,T_target,3,,1306,dte,1 (481).jpg,0.0-22.0-1.0-0.8,1,True,,0,True,,True,False,,True,False,,10,0,7,0,,,,,,,0,,,,,images/1 (481).jpg,,B,,,20,0,,dte,,,finalTest,,10,0,309,28327,0.47,1074,image-keyboard-response,,,,"current target, not in next trial",,,,885
dte,9McIMdKxrNQU36MxD6dX,,0,,,,,2,r,False,,,,f,F,3,,1306,dte,1 (1571).jpg,0.0-22.0-1.0-0.23,1,True,,0,False,,False,False,,False,False,,0,0,7,6,,,1,,,,0,,,,,images/1 (1571).jpg,,FF,,,0,0,,dte,,,finalTest,,0,0,324,28504,0.48,1089,image-keyboard-response,,,,final Foil,,,,885
dte,9PZxycLAK5MO2v4Xl2WZ,,0,,True,,,2,r,False,False,False,,f,T_foil,3,,1306,dte,1 (1658).jpg,0.0-11.0-10.0-0.21,1,True,False,0,False,False,False,False,True,False,True,7,6,7,,0,,,2,,,,0,,,,,images/1 (1658).jpg,Fnn,Fnn,,0,0,0,,dte,,,initialTest_response,22,0,22,59,20631,0.34,528,image-keyboard-response,0,1,1,"tested only, in next trial, from last trial",,,,885
dte,9QnQffBfaFrAhf176cCm,,0,,,,,2,r,False,,,,j,T_foil,3,,1306,dte,1 (650).jpg,0.0-16.0-1.0-0.36,1,True,,0,True,,False,False,,True,False,,4,False,1,4,,,,,,,0,,,,,images/1 (650).jpg,,Fn,,,0,0,,dte,,,finalTest,,26,0,37,25033,0.42,802,image-keyboard-response,,,,"tested only, not in next trial",,,,885
dte,9RYTRuewizAoJbwfQPDn,,0,,False,,,2,r,False,False,,,j,T_target,3,,1306,dte,1 (148).jpg,0.0-13.0-10.0-0.25,1,True,True,0,False,True,True,False,True,True,False,9,9,False,,0,,,1,,,,0,,,,,images/1 (148).jpg,B,B,,15,15,0,,dte,,,initialTest_response,26,26,0,240,23257,0.39,684,image-keyboard-response,1,1,0,"current target, not in next trial",,,,885
dte,9UgsfVfnwN8KVFYrS1B1,,,,False,,,2,r,,,,,,T_target,3,,1306,dte,1 (1070).jpg,0.0-5.0-2.0-0.27,1,True,True,0,,True,True,False,True,True,False,1,1,0,1,0,,,1,,,,,,,,,images/1 (1070).jpg,B,B,,28,28,0,,dte,,,initial_study,9,9,0,26,12674,0.21,34,image-keyboard-response,1,1,0,"current target, not in next trial",,,,1395
dte,9WBduNLrZd8jZGNx6Y3z,,0,,,,,2,r,False,False,False,,j,T_foil,3,,1306,dte,1 (1393).jpg,0.0-18.0-1.0-0.15,1,True,,0,True,,False,False,,True,True,,8,9,3,8,,,,,,,0,,,,,images/1 (1393).jpg,,Fnn,,,0,0,,dte,,,finalTest,,7,1,124,26092,0.44,889,image-keyboard-response,,,,"tested only, in next trial",,,,885
dte,9fIV99WyIur0m4uKVJFH,,,,True,,,2,r,,,,,,T_nontarget,3,,1306,dte,1 (36).jpg,0.0-10.0-2.0-0.16,1,True,True,0,,True,True,False,False,False,True,6,6,7,6,0,,,1,,,,,,,,,images/1 (36).jpg,Cn+1,Cn,,17,17,0,,dte,,,initial_study,0,0,23,258,18625,0.31,403,image-keyboard-response,1,0,1,"studied only, in next trial",,,,885
dte,9jv1Yghz9C6teHD84u0I,,,,False,,,2,r,,,,,,T_nontarget,3,,1306,dte,1 (1867).jpg,0.0-11.0-2.0-0.14,1,False,True,0,,True,True,False,False,False,False,7,7,0,,0,,,1,,,,,,,,,images/1 (1867).jpg,A,A,,15,15,0,,dte,,,initial_study,0,0,0,0,19829,0.33,477,image-keyboard-response,1,0,0,"studied only, not in trial",,,,885
dte,9rbc6inUCVTrKQ8PZkLe,,,,False,,,2,r,,,,,,T_target,3,,1306,dte,1 (483).jpg,0.0-13.0-2.0-0.4,1,False,True,0,,True,True,False,True,True,False,9,9,0,,0,,,1,,,,,,,,,images/1 (483).jpg,B,B,,5,5,0,,dte,,,initial_study,24,24,0,0,22235,0.37,619,image-keyboard-response,1,1,0,"current target, not in next trial",,,,885
dte,9xSd8dyP3mEq6fpZdbJS,,,,False,,,2,r,,,,,,T_nontarget,3,,1306,dte,1 (1340).jpg,0.0-11.0-2.0-0.12,1,True,True,0,,True,True,False,False,False,False,7,7,0,8,0,,,1,,,,,,,,,images/1 (1340).jpg,A,A,,13,13,0,,dte,,,initial_study,0,0,0,374,19802,0.33,475,image-keyboard-response,1,0,0,"studied only, not in trial",,,,885
dte,A3I9tr8l0xvkmvFJHK1Q,,,,False,,,2,r,,,,,,T_nontarget,3,,1306,dte,1 (282).jpg,0.0-9.0-2.0-0.15,1,False,True,0,,True,True,False,False,False,False,5,5,0,,0,,,1,,,,,,,,,images/1 (282).jpg,A,A,,16,16,0,,dte,,,initial_study,0,0,0,0,17416,0.29,326,image-keyboard-response,1,0,0,"studied only, not in trial",,,,885
dte,A7gWGsrSnw8jrm81Gpfh,,0,,,,,2,r,False,,,,f,F,3,,1306,dte,1 (488).jpg,0.0-21.0-1.0-0.6,1,True,,0,False,,False,False,,False,False,,0,0,6,5,,,1,,,,0,,,,,images/1 (488).jpg,,FF,,,0,0,,dte,,,finalTest,,0,0,259,27710,0.46,1024,image-keyboard-response,,,,final Foil,,,,885
dte,A8LgSHWueBSVoIsAEyaz,,0,,False,,,2,r,False,False,,,j,T_target,3,,1306,dte,1 (1589).jpg,0.0-12.0-10.0-0.14,1,False,True,0,False,True,True,False,True,True,False,8,8,False,,0,,,1,,,,0,,,,,images/1 (1589).jpg,B,B,,4,4,0,,dte,,,initialTest_response,15,15,0,0,21696,0.36,597,image-keyboard-response,1,1,0,"current target, not in next trial",,,,885
dte,AAIXqTNoBCKw3MtSQMVJ,,,,,,,2,r,,,,,,,3,,1306,dte,,0.0-9.0-3.0-0.0,1,,,0,,,,,,,,,,,,,,,,,,,,,,,,Summing up the digits as they appear,,,,,,,,dte,,,prompt,,,,,17577,0.29,341,html-keyboard-response,,,,,,,,885
dte,ABI4xGAhqtpx471oaPXf,,,,False,,,2,r,,,,,,T_nontarget,3,,1306,dte,1 (633).jpg,0.0-5.0-2.0-0.28,1,True,True,0,,True,True,False,False,False,False,1,1,0,6,0,,,1,,,,,,,,,images/1 (633).jpg,A,A,,29,29,0,,dte,,,initial_study,0,0,0,262,12689,0.21,35,image-keyboard-response,1,0,0,"studied only, not in trial",,,,1395
dte,ACyARoAw9XBCodETOiVX,,0,,False,,,2,r,False,False,,,j,T_target,3,,1306,dte,1 (1247).jpg,0.0-9.0-10.0-0.14,1,True,True,0,False,True,True,False,True,True,False,5,5,False,,0,,,1,,,,0,,,,,images/1 (1247).jpg,B,B,,4,4,0,,dte,,,initialTest_response,15,15,0,10,18052,0.30,369,image-keyboard-response,1,1,0,"current target, not in next trial",,,,885
dte,AFfgsYXxOzy1EDYyp4ta,,0,,,,,2,r,False,,,,f,F,3,,1306,dte,1 (869).jpg,0.0-22.0-1.0-0.27,1,True,,0,False,,False,False,,False,False,,0,0,7,0,,,1,,,,0,,,,,images/1 (869).jpg,,FF,,,0,0,,dte,,,finalTest,,0,0,328,28550,0.48,1093,image-keyboard-response,,,,final Foil,,,,885
dte,AG004bVddavngX2ZNhcq,,0,,,,,2,r,False,,,,f,F,3,,1306,dte,1 (1066).jpg,0.0-24.0-1.0-0.30,1,True,,0,False,,False,False,,False,False,,0,0,9,4,,,1,,,,0,,,,,images/1 (1066).jpg,,FF,,,0,0,,dte,,,finalTest,,0,0,427,29773,0.50,1192,image-keyboard-response,,,,final Foil,,,,885
dte,APDbVfNT7Dl2wQ7CEA9o,,,,False,,,2,r,,,,,,T_nontarget,3,,1306,dte,1 (1297).jpg,0.0-13.0-2.0-0.24,1,True,True,0,,True,True,False,False,False,False,9,9,0,1,0,,,1,,,,,,,,,images/1 (1297).jpg,A,A,,25,25,0,,dte,,,initial_study,0,0,0,36,22463,0.38,639,image-keyboard-response,1,0,0,"studied only, not in trial",,,,885
dte,AVXEqqsCAyh03PrUqD8h,,,,,,,2,r,,,,,,,3,,1306,dte,,0.0-6.0-5.0-0.1,1,,,0,,,,,,,,2,,,,,,,,,2,,,,,,,5,,,5,,,,,dte,,63,digitPresentation,,,,,14014,0.23,116,html-keyboard-response,,,,,,,,1395
dte,AiouEsbW1TA4t1iwzzDg,,0,,,,,2,r,False,,,,f,F,3,,1306,dte,1 (231).jpg,0.0-21.0-1.0-0.27,1,True,,0,False,,False,False,,False,False,,0,0,6,3,,,1,,,,0,,,,,images/1 (231).jpg,,FF,,,0,0,,dte,,,finalTest,,0,0,280,27953,0.47,1045,image-keyboard-response,,,,final Foil,,,,885
dte,Aizrdq2JBbx7DhxW1N86,,,,False,,,2,r,,,,,,T_target,3,,1306,dte,1 (1035).jpg,0.0-8.0-2.0-0.15,1,True,True,0,,True,True,False,True,True,False,4,4,0,8,0,,,1,,,,,,,,,images/1 (1035).jpg,B,B,,16,16,0,,dte,,,initial_study,2,2,0,358,16199,0.27,250,image-keyboard-response,1,1,0,"current target, not in next trial",,,,885
dte,ArIAIYwJcSbgM96s8dcN,,,,,,,2,r,False,,,63,,,3,,1306,dte,,0.0-6.0-6.0-0.0-0.0,1,,,0,,,,,,,,,,,,,,,,,,,,"{'answer': 'Skipped after 0.01 seconds', 'question': ""Please enter the sum using your number keyboard <p>Press 'enter' to continue.</p>""}",Please enter the sum using your number keyboard <p>Press 'enter' to continue.</p>,,,,,,,,,,,dte,,,answer_counting,,,,,14086,0.24,123,survey-text,,,,,,,,885
dte,AuhK0gEBGNwDGNRFacbB,,0,,,,,2,r,False,,,,j,T_nontarget,3,,1306,dte,1 (1253).jpg,0.0-18.0-1.0-0.8,1,True,,0,True,,True,False,,False,False,,1,0,3,0,,,,,,,0,,,,,images/1 (1253).jpg,,A,,,23,0,,dte,,,finalTest,,0,0,117,26017,0.43,882,image-keyboard-response,,,,"studied only, not in trial",,,,885
dte,AxEE6AaJDqU9Vw3waVLC,,0,,,,,2,r,False,,,,f,F,3,,1306,dte,1 (711).jpg,0.0-24.0-1.0-0.18,1,True,,0,False,,False,False,,False,False,,0,0,9,6,,,1,,,,0,,,,,images/1 (711).jpg,,FF,,,0,0,,dte,,,finalTest,,0,0,415,29625,0.49,1180,image-keyboard-response,,,,final Foil,,,,885
dte,AyVgYXWNx7VVLfngEC6d,,,,,,,2,r,,,,,,,3,,1306,dte,,0.0-11.0-0.0-0.0,1,,,0,,,,,,,,,,,,,,,,,,,,,,,,"
    <p style='text-align: justify;color: black;background: white;font: caption-;''>
        Press the 'enter' key to see the next list of pictures. </p>
    ",,,,,,,,dte,,,,,,,,19632,0.33,461,html-keyboard-response,,,,,,,,885
dte,Ayyv2I2GYHphhCDv0cnp,,0,,,,,2,r,False,,,,j,T_nontarget,3,,1306,dte,1 (1340).jpg,0.0-23.0-1.0-0.25,1,True,,0,True,,True,False,,False,False,,7,0,8,0,,,,,,,0,,,,,images/1 (1340).jpg,,A,,,13,0,,dte,,,finalTest,,0,0,374,29131,0.49,1139,image-keyboard-response,,,,"studied only, not in trial",,,,885
dte,AzvMqFDjllvHzybZ5Kcr,,,,False,,,2,r,,,,,,T_nontarget,3,,1306,dte,1 (902).jpg,0.0-5.0-2.0-0.12,1,True,True,0,,True,True,False,False,False,False,1,1,0,3,0,,,1,,,,,,,,,images/1 (902).jpg,A,A,,13,13,0,,dte,,,initial_study,0,0,0,114,12406,0.21,19,image-keyboard-response,1,0,0,"studied only, not in trial",,,,1395
dte,B7eEoRPyipR5FMCQvvNd,,0,,False,,,2,r,False,False,,,f,T_foil,3,,1306,dte,1 (596).jpg,0.0-13.0-10.0-0.8,1,True,True,0,False,False,False,False,True,True,False,9,9,False,7,0,,,1,,,,0,,,,,images/1 (596).jpg,Fn+1,Fn,,0,0,0,,dte,,,initialTest_response,9,9,0,335,22871,0.38,667,image-keyboard-response,0,1,0,"tested only, not in next trial",,,,885
dte,BAMk43LoQg4GRteJCESL,,0,,,,,2,r,False,,,,j,T_nontarget,3,,1306,dte,1 (1408).jpg,0.0-19.0-1.0-0.35,1,True,,0,True,,True,False,,False,False,,4,0,4,0,,,,,,,0,,,,,images/1 (1408).jpg,,A,,,24,0,,dte,,,finalTest,,0,0,192,26902,0.45,957,image-keyboard-response,,,,"studied only, not in trial",,,,885
dte,BDoVnbrYXQbdOMj7rGaB,,0,,,,,2,r,False,,,,f,F,3,,1306,dte,1 (1966).jpg,0.0-23.0-1.0-0.39,1,True,,0,False,,False,False,,False,False,,0,0,8,5,,,1,,,,0,,,,,images/1 (1966).jpg,,FF,,,0,0,,dte,,,finalTest,,0,0,388,29302,0.49,1153,image-keyboard-response,,,,final Foil,,,,885
dte,BJQiPxlGWteYHwNHH7fy,,,,True,,,2,r,,,,,,T_target,3,,1306,dte,1 (2235).jpg,0.0-10.0-2.0-0.28,1,True,True,0,,True,True,False,True,True,True,6,6,7,9,0,,,1,,,,,,,,,images/1 (2235).jpg,Dn+1,Dn,,29,29,0,,dte,,,initial_study,10,10,3,400,18770,0.31,415,image-keyboard-response,1,1,1,"current target, in next trial",,,,885
dte,BKBgILnq1khAxX3yduH0,,,,,,,2,r,,,,,,,3,,1306,dte,,0.0-5.0-5.0-0.3,1,,,0,,,,,,,,1,,,,,,,,,4,,,,,,,7,,,7,,,,,dte,,59,digitPresentation,,,,,12807,0.21,42,html-keyboard-response,,,,,,,,1395
dte,BNg8YIBFBdMRi2TYvHBj,,0,,,,,2,r,False,,,,f,F,3,,1306,dte,1 (144).jpg,0.0-25.0-1.0-0.47,1,True,,0,False,,False,False,,False,False,,0,0,10,10,,,1,,,,0,,,,,images/1 (144).jpg,,FF,,,0,0,,dte,,,finalTest,,0,0,492,30553,0.51,1257,image-keyboard-response,,,,final Foil,,,,885
dte,BO7xVQI03oTEksBzqpYq,,0,,,,,2,r,False,,,,j,T_foil,3,,1306,dte,1 (1341).jpg,0.0-20.0-1.0-0.7,1,True,,0,True,,False,False,,True,False,,8,False,5,8,,,,,,,0,,,,,images/1 (1341).jpg,,Fn,,,0,0,,dte,,,finalTest,,9,0,212,27131,0.45,977,image-keyboard-response,,,,"tested only, not in next trial",,,,885
dte,BSHPhFodq0rWAeRc81QG,,,,,,,2,r,,,,,,,3,,1306,dte,,0.0-12.0-7.0-0.0,1,,,0,,,,,,,,,,,,,,,,,,,,,,,,<p background:white>INCORRECT!</p>,,,,,,,,dte,,,promptfeedback,,,,,21339,0.36,580,html-keyboard-response,,,,,,,,885
dte,BXkfFg3DWrRrloa0c6BU,,0,,,,,2,r,False,,,,f,F,3,,1306,dte,1 (2362).jpg,0.0-17.0-1.0-0.27,1,True,,0,False,,False,False,,False,False,,0,0,2,0,,,1,,,,0,,,,,images/1 (2362).jpg,,FF,,,0,0,,dte,,,finalTest,,0,0,88,25666,0.43,853,image-keyboard-response,,,,final Foil,,,,885
dte,BXkrKaif0JqqMNSYFKqa,,0,,,,,2,r,False,,,,j,T_nontarget,3,,1306,dte,1 (1823).jpg,0.0-18.0-1.0-0.0,1,True,,0,True,,True,False,,False,False,,9,0,3,0,,,,,,,0,,,,,images/1 (1823).jpg,,A,,,22,0,,dte,,,finalTest,,0,0,109,25914,0.43,874,image-keyboard-response,,,,"studied only, not in trial",,,,885
dte,BZ5tRs1pPbwLoXRxoeTh,,0,,True,,,2,r,False,False,False,,f,T_foil,3,,1306,dte,1 (659).jpg,0.0-8.0-10.0-0.3,1,True,False,0,False,False,True,False,True,True,True,4,3,4,,0,,,2,,,,0,,,,,images/1 (659).jpg,Dn,Dn,,0,23,0,,dte,,,initialTest_response,4,23,4,79,16601,0.28,282,image-keyboard-response,1,1,1,"current target, in next trial, from last trial",,,,885
dte,BZz4Z6xXjCddlrT591yh,,0,,False,,,2,r,False,False,,,f,T_foil,3,,1306,dte,1 (2369).jpg,0.0-5.0-10.0-0.2,1,False,True,0,False,False,False,False,True,True,False,1,1,False,,0,,,1,,,,0,,,,,images/1 (2369).jpg,Fn+1,Fn,,0,0,0,,dte,,,initialTest_response,3,3,0,0,13024,0.22,53,image-keyboard-response,0,1,0,"tested only, not in next trial",,,,1395
dte,Be4zwHoeX9pxch78sCnx,,0,,False,,,2,r,False,False,,,j,T_target,3,,1306,dte,1 (169).jpg,0.0-8.0-10.0-0.11,1,True,True,0,False,True,True,False,True,True,False,4,4,False,,0,,,1,,,,0,,,,,images/1 (169).jpg,B,B,,9,9,0,,dte,,,initialTest_response,12,12,0,104,16786,0.28,290,image-keyboard-response,1,1,0,"current target, not in next trial",,,,885
dte,Begfw92Uuos1IV37dyb4,,0,,,,,2,r,False,,,,f,F,3,,1306,dte,1 (963).jpg,0.0-16.0-1.0-0.39,1,True,,0,False,,False,False,,False,False,,0,0,1,0,,,1,,,,0,,,,,images/1 (963).jpg,,FF,,,0,0,,dte,,,finalTest,,0,0,40,25066,0.42,805,image-keyboard-response,,,,final Foil,,,,885
dte,BiDsBArQuOho6zaJlJNo,,,,False,,,2,r,,,,,,T_target,3,,1306,dte,1 (2018).jpg,0.0-14.0-2.0-0.8,1,False,True,0,,True,True,False,True,True,False,10,10,0,,0,,,1,,,,,,,,,images/1 (2018).jpg,B,B,,9,9,0,,dte,,,initial_study,1,1,0,0,23479,0.39,699,image-keyboard-response,1,1,0,"current target, not in next trial",,,,885
dte,BkXanSauVgAWquYY1zd7,,0,,,,,2,r,False,,,,f,F,3,,1306,dte,1 (225).jpg,0.0-25.0-1.0-0.7,1,True,,0,False,,False,False,,False,False,,0,0,10,1,,,1,,,,0,,,,,images/1 (225).jpg,,FF,,,0,0,,dte,,,finalTest,,0,0,452,30083,0.50,1217,image-keyboard-response,,,,final Foil,,,,885
dte,BrspiReNmwQs0cLSRh6q,,0,,,,,2,r,False,,,,f,F,3,,1306,dte,1 (1642).jpg,0.0-25.0-1.0-0.26,1,True,,0,False,,False,False,,False,False,,0,0,10,7,,,1,,,,0,,,,,images/1 (1642).jpg,,FF,,,0,0,,dte,,,finalTest,,0,0,471,30310,0.51,1236,image-keyboard-response,,,,final Foil,,,,885
dte,BuIcwfxcX7Psd0ZrQKSG,,0,,,,,2,r,False,,,,f,F,3,,1306,dte,1 (393).jpg,0.0-16.0-1.0-0.13,1,True,,0,False,,False,False,,False,False,,0,0,1,5,,,1,,,,0,,,,,images/1 (393).jpg,,FF,,,0,0,,dte,,,finalTest,,0,0,14,24759,0.41,779,image-keyboard-response,,,,final Foil,,,,885
dte,ByhAcRWN7aqVnpEmjbS5,,0,,True,,,2,r,False,False,,,j,T_target,3,,1306,dte,1 (515).jpg,0.0-6.0-10.0-0.10,1,True,True,0,False,True,True,False,True,True,True,2,2,3,,0,,,1,,,,0,,,,,images/1 (515).jpg,Dn+1,Dn,,30,30,0,,dte,,,initialTest_response,11,11,24,78,14346,0.24,137,image-keyboard-response,1,1,1,"current target, in next trial",,,,885
dte,C5eehGj7EOGLkLCaEIOO,,0,,,,,2,r,False,,,,f,F,3,,1306,dte,1 (1214).jpg,0.0-17.0-1.0-0.7,1,True,,0,False,,False,False,,False,False,,0,0,2,0,,,1,,,,0,,,,,images/1 (1214).jpg,,FF,,,0,0,,dte,,,finalTest,,0,0,68,25412,0.42,833,image-keyboard-response,,,,final Foil,,,,885
dte,C7uTmZeY5JstdWe7FMct,,0,,,,,2,r,False,,,,f,F,3,,1306,dte,1 (901).jpg,0.0-16.0-1.0-0.44,1,True,,0,False,,False,False,,False,False,,0,0,1,0,,,1,,,,0,,,,,images/1 (901).jpg,,FF,,,0,0,,dte,,,finalTest,,0,0,45,25125,0.42,810,image-keyboard-response,,,,final Foil,,,,885
dte,C8wY6hzBK6zGlFcqBAVF,,0,,,,,2,r,False,,,,j,T_target,3,,1306,dte,1 (1183).jpg,0.0-20.0-1.0-0.36,1,True,,0,True,,True,False,,True,False,,8,0,5,0,,,,,,,0,,,,,images/1 (1183).jpg,,B,,,19,0,,dte,,,finalTest,,17,0,241,27492,0.46,1006,image-keyboard-response,,,,"current target, not in next trial",,,,885
dte,CBs0vz5q0B2zUg0Il83y,,0,,,,,2,r,False,,,,j,T_target,3,,1306,dte,1 (1434).jpg,0.0-18.0-1.0-0.41,1,True,,0,True,,True,False,,True,False,,2,0,3,0,,,,,,,0,,,,,images/1 (1434).jpg,,B,,,4,0,,dte,,,finalTest,,3,0,150,26411,0.44,915,image-keyboard-response,,,,"current target, not in next trial",,,,885
dte,CCcmXwtGZSyIncHYcwfD,,,,False,,,2,r,,,,,,T_nontarget,3,,1306,dte,1 (400).jpg,0.0-8.0-2.0-0.12,1,True,True,0,,True,True,False,False,False,False,4,4,0,10,0,,,1,,,,,,,,,images/1 (400).jpg,A,A,,13,13,0,,dte,,,initial_study,0,0,0,450,16164,0.27,247,image-keyboard-response,1,0,0,"studied only, not in trial",,,,885
dte,CLeras8zgwYGofpjSIBS,,0,,,,,2,r,False,,,,f,F,3,,1306,dte,1 (1231).jpg,0.0-18.0-1.0-0.13,1,True,,0,False,,False,False,,False,False,,0,0,3,4,,,1,,,,0,,,,,images/1 (1231).jpg,,FF,,,0,0,,dte,,,finalTest,,0,0,122,26071,0.44,887,image-keyboard-response,,,,final Foil,,,,885
dte,CPFqN9TgFb92yNxRcRyJ,,0,,True,,,2,r,False,False,False,,f,T_foil,3,,1306,dte,1 (1159).jpg,0.0-7.0-10.0-0.28,1,True,False,0,False,False,False,False,True,False,True,3,2,3,,0,,,2,,,,0,,,,,images/1 (1159).jpg,Fnn,Fnn,,0,0,0,,dte,,,initialTest_response,29,0,29,372,15958,0.27,231,image-keyboard-response,0,1,1,"tested only, in next trial, from last trial",,,,885
dte,CQlhbaVkP6XXW6Q3sjQO,,,,False,,,2,r,,,,,,T_target,3,,1306,dte,1 (1358).jpg,0.0-6.0-2.0-0.14,1,False,True,0,,True,True,False,True,True,False,2,2,0,,0,,,1,,,,,,,,,images/1 (1358).jpg,B,B,,15,15,0,,dte,,,initial_study,14,14,0,0,13801,0.23,97,image-keyboard-response,1,1,0,"current target, not in next trial",,,,1395
dte,CSMIMSKASomhNfEWGdzd,,0,,False,,,2,r,False,False,,,f,T_foil,3,,1306,dte,1 (2200).jpg,0.0-12.0-10.0-0.3,1,True,True,0,False,False,False,False,True,True,False,8,8,False,3,0,,,1,,,,0,,,,,images/1 (2200).jpg,Fn+1,Fn,,0,0,0,,dte,,,initialTest_response,4,4,0,110,21436,0.36,586,image-keyboard-response,0,1,0,"tested only, not in next trial",,,,885
dte,CTQhre40TSVpahhijvQM,,0,,,,,2,r,False,,,,j,T_foil,3,,1306,dte,1 (187).jpg,0.0-21.0-1.0-0.41,1,True,,0,True,,False,False,,True,False,,1,False,6,1,,,,,,,0,,,,,images/1 (187).jpg,,Fn,,,0,0,,dte,,,finalTest,,6,0,294,28132,0.47,1059,image-keyboard-response,,,,"tested only, not in next trial",,,,885
dte,CWMta3CizRdmpR6hmhn5,,,,,,,2,r,,,,,,,3,,1306,dte,,0.0-14.0-5.0-0.3,1,,,0,,,,,,,,10,,,,,,,,,4,,,,,,,9,,,9,,,,,dte,,50,digitPresentation,,,,,23812,0.40,726,html-keyboard-response,,,,,,,,885
dte,CWNgzWCE9WICa6ZeSzjI,,0,,,,,2,r,False,,,,f,F,3,,1306,dte,1 (889).jpg,0.0-18.0-1.0-0.17,1,True,,0,False,,False,False,,False,False,,0,0,3,0,,,1,,,,0,,,,,images/1 (889).jpg,,FF,,,0,0,,dte,,,finalTest,,0,0,126,26115,0.44,891,image-keyboard-response,,,,final Foil,,,,885
dte,CYS4uaNgFpTAJxirv00h,,0,,False,,,2,r,False,False,,,j,T_target,3,,1306,dte,1 (1436).jpg,0.0-6.0-10.0-0.9,1,False,True,0,False,True,True,False,True,True,False,2,2,False,,0,,,1,,,,0,,,,,images/1 (1436).jpg,B,B,,9,9,0,,dte,,,initialTest_response,10,10,0,0,14324,0.24,136,image-keyboard-response,1,1,0,"current target, not in next trial",,,,885
dte,CeqsjglrflduPEipyRWa,,,,False,,,2,r,,,,,,T_nontarget,3,,1306,dte,1 (973).jpg,0.0-12.0-2.0-0.16,1,False,True,0,,True,True,False,False,False,False,8,8,0,,0,,,1,,,,,,,,,images/1 (973).jpg,A,A,,17,17,0,,dte,,,initial_study,0,0,0,0,21050,0.35,555,image-keyboard-response,1,0,0,"studied only, not in trial",,,,885
dte,Cfh7fb93NdkgswaljvY5,,,,False,,,2,r,,,,,,T_nontarget,3,,1306,dte,1 (153).jpg,0.0-10.0-2.0-0.23,1,True,True,0,,True,True,False,False,False,False,6,6,0,1,0,,,1,,,,,,,,,images/1 (153).jpg,A,A,,24,24,0,,dte,,,initial_study,0,0,0,7,18709,0.31,410,image-keyboard-response,1,0,0,"studied only, not in trial",,,,885
dte,Co1RoOcRQngKHCmKfrXo,,,,,,,2,r,,,,,,,3,,1306,dte,,0.0-7.0-8.0-0.0,1,,,0,,,,,,,,,,,,,,,,,,,,,,,,Now judge if you have seen this pictures from the list you JUST studied before the digits,,,,,,,,dte,,,prompt,,,,,15311,0.26,201,html-keyboard-response,,,,,,,,885
dte,CrsoDHNMouiqyIJIFdnr,,0,,,,,2,r,False,,,,f,F,3,,1306,dte,1 (2352).jpg,0.0-16.0-1.0-0.23,1,True,,0,False,,False,False,,False,False,,0,0,1,5,,,1,,,,0,,,,,images/1 (2352).jpg,,FF,,,0,0,,dte,,,finalTest,,0,0,24,24883,0.42,789,image-keyboard-response,,,,final Foil,,,,885
dte,Ct4bigsgsCDJdKARIP1C,,0,,,,,2,r,False,,,,j,T_target,3,,1306,dte,1 (1863).jpg,0.0-21.0-1.0-0.40,1,True,,0,True,,True,False,,True,False,,4,0,6,0,,,,,,,0,,,,,images/1 (1863).jpg,,B,,,14,0,,dte,,,finalTest,,22,0,293,28120,0.47,1058,image-keyboard-response,,,,"current target, not in next trial",,,,885
dte,CvXBpPBzgyBKDo53XDpn,,0,,,,,2,r,False,,,,f,F,3,,1306,dte,1 (1166).jpg,0.0-23.0-1.0-0.15,1,True,,0,False,,False,False,,False,False,,0,0,8,8,,,1,,,,0,,,,,images/1 (1166).jpg,,FF,,,0,0,,dte,,,finalTest,,0,0,364,29000,0.48,1129,image-keyboard-response,,,,final Foil,,,,885
dte,CwkR2HeQl7jRWsWv65Qy,,0,,False,,,2,r,False,False,,,f,T_foil,3,,1306,dte,1 (134).jpg,0.0-13.0-10.0-0.17,1,False,True,0,False,False,False,False,True,True,False,9,9,False,,0,,,1,,,,0,,,,,images/1 (134).jpg,Fn+1,Fn,,0,0,0,,dte,,,initialTest_response,18,18,0,0,23072,0.39,676,image-keyboard-response,0,1,0,"tested only, not in next trial",,,,885
dte,CwpgqBFN6sp4FZ2jKqQK,,0,,,,,2,r,False,,,,f,F,3,,1306,dte,1 (1569).jpg,0.0-25.0-1.0-0.19,1,True,,0,False,,False,False,,False,False,,0,0,10,2,,,1,,,,0,,,,,images/1 (1569).jpg,,FF,,,0,0,,dte,,,finalTest,,0,0,464,30220,0.50,1229,image-keyboard-response,,,,final Foil,,,,885
dte,Cy4VLuG3BtngnSCASAGw,,,,False,,,2,r,,,,,,T_nontarget,3,,1306,dte,1 (924).jpg,0.0-9.0-2.0-0.21,1,True,True,0,,True,True,False,False,False,False,5,5,0,1,0,,,1,,,,,,,,,images/1 (924).jpg,A,A,,22,22,0,,dte,,,initial_study,0,0,0,42,17482,0.29,332,image-keyboard-response,1,0,0,"studied only, not in trial",,,,885
dte,D1k6G66UPk5TVAS1jnA4,,0,,,,,2,r,False,,,,f,F,3,,1306,dte,1 (408).jpg,0.0-18.0-1.0-0.46,1,True,,0,False,,False,False,,False,False,,0,0,3,2,,,1,,,,0,,,,,images/1 (408).jpg,,FF,,,0,0,,dte,,,finalTest,,0,0,155,26469,0.44,920,image-keyboard-response,,,,final Foil,,,,885
dte,D442iptS58EsDmqnycgG,,0,,,,,2,r,False,,,,j,T_foil,3,,1306,dte,1 (988).jpg,0.0-21.0-1.0-0.11,1,True,,0,True,,False,False,,True,False,,6,False,6,6,,,,,,,0,,,,,images/1 (988).jpg,,Fn,,,0,0,,dte,,,finalTest,,21,0,264,27770,0.46,1029,image-keyboard-response,,,,"tested only, not in next trial",,,,885
dte,D4GqpNKfTVAkjTYLtvBo,,,,,,,2,r,,,,,,,3,,1306,dte,,0.0-7.0-1.0-0.0,1,,,0,,,,,,,,,,,,,,,,,,,,,,,,"<div style=""font-size:60px;"">+</div>",,,,,,,,dte,,,fixation,,,,,14809,0.25,158,html-keyboard-response,,,,,,,,885
dte,D68BvBId5aZmUiDX8PY3,,0,,,,,2,r,False,,,,j,T_nontarget,3,,1306,dte,1 (633).jpg,0.0-21.0-1.0-0.9,1,True,,0,True,,True,False,,False,False,,1,0,6,0,,,,,,,0,,,,,images/1 (633).jpg,,A,,,29,0,,dte,,,finalTest,,0,0,262,27748,0.46,1027,image-keyboard-response,,,,"studied only, not in trial",,,,885
dte,D6IBghpxiOvpAvYCbsYF,,0,,False,,,2,r,False,False,,,j,T_target,3,,1306,dte,1 (2154).jpg,0.0-5.0-10.0-0.7,1,False,True,0,False,True,True,False,True,True,False,1,1,False,,0,,,1,,,,0,,,,,images/1 (2154).jpg,B,B,,1,1,0,,dte,,,initialTest_response,8,8,0,0,13131,0.22,58,image-keyboard-response,1,1,0,"current target, not in next trial",,,,1395
dte,D8kWSFtfHhVO663tD9WU,,,,,,,2,r,,,,,,,3,,1306,dte,,0.0-11.0-5.0-0.3,1,,,0,,,,,,,,7,,,,,,,,,4,,,,,,,6,,,6,,,,,dte,,37,digitPresentation,,,,,20065,0.34,498,html-keyboard-response,,,,,,,,885
dte,DAa8kjwjyhlghoDLy7Pn,,0,,,,,2,r,False,,,,j,T_nontarget,3,,1306,dte,1 (51).jpg,0.0-24.0-1.0-0.8,1,True,,0,True,,True,False,,False,False,,10,0,9,0,,,,,,,0,,,,,images/1 (51).jpg,,A,,,18,0,,dte,,,finalTest,,0,0,405,29501,0.49,1170,image-keyboard-response,,,,"studied only, not in trial",,,,885
dte,DGDAlLnlD3szll6c2Toa,,0,,,,,2,r,False,,,,f,F,3,,1306,dte,1 (604).jpg,0.0-23.0-1.0-0.14,1,True,,0,False,,False,False,,False,False,,0,0,8,9,,,1,,,,0,,,,,images/1 (604).jpg,,FF,,,0,0,,dte,,,finalTest,,0,0,363,28988,0.48,1128,image-keyboard-response,,,,final Foil,,,,885
dte,DNGTxijEJgSX79xGcrA9,,0,,,,,2,r,False,,,,f,F,3,,1306,dte,1 (1276).jpg,0.0-19.0-1.0-0.4,1,True,,0,False,,False,False,,False,False,,0,0,4,0,,,1,,,,0,,,,,images/1 (1276).jpg,,FF,,,0,0,,dte,,,finalTest,,0,0,161,26538,0.44,926,image-keyboard-response,,,,final Foil,,,,885
dte,DVFVMIXsRn07GJxpvIuB,,0,,False,,,2,r,False,False,,,j,T_target,3,,1306,dte,1 (1351).jpg,0.0-7.0-10.0-0.0,1,False,True,0,False,True,True,False,True,True,False,3,3,False,,0,,,1,,,,0,,,,,images/1 (1351).jpg,B,B,,26,26,0,,dte,,,initialTest_response,1,1,0,0,15334,0.26,203,image-keyboard-response,1,1,0,"current target, not in next trial",,,,885
dte,DckjXTRUoZmTQ2OhW3VH,,,,False,,,2,r,,,,,,T_target,3,,1306,dte,1 (476).jpg,0.0-11.0-2.0-0.6,1,False,True,0,,True,True,False,True,True,False,7,7,0,,0,,,1,,,,,,,,,images/1 (476).jpg,B,B,,7,7,0,,dte,,,initial_study,11,11,0,0,19724,0.33,469,image-keyboard-response,1,1,0,"current target, not in next trial",,,,885
dte,DeKkpccW5jGHdi4qSTwg,,,,False,,,2,r,,,,,,T_nontarget,3,,1306,dte,1 (290).jpg,0.0-10.0-2.0-0.14,1,True,True,0,,True,True,False,False,False,False,6,6,0,3,0,,,1,,,,,,,,,images/1 (290).jpg,A,A,,15,15,0,,dte,,,initial_study,0,0,0,156,18601,0.31,401,image-keyboard-response,1,0,0,"studied only, not in trial",,,,885
dte,DjxEoDZXNSHpPYBxvj8W,,0,,,,,2,r,False,False,False,,j,T_foil,3,,1306,dte,1 (1658).jpg,0.0-16.0-1.0-0.58,1,True,,0,True,,False,False,,True,True,,6,7,1,6,,,,,,,0,,,,,images/1 (1658).jpg,,Fnn,,,0,0,,dte,,,finalTest,,13,22,59,25307,0.42,824,image-keyboard-response,,,,"tested only, in next trial",,,,885
dte,DnPGtDnyNsi6VFP89Nzs,,,,,,,2,r,,,,,,,3,,1306,dte,,0.0-13.0-5.0-0.4,1,,,0,,,,,,,,9,,,,,,,,,5,,,,,,,4,,,4,,,,,dte,,47,digitPresentation,,,,,22608,0.38,651,html-keyboard-response,,,,,,,,885
dte,DsCCvgdsNODmlhSd2JlO,,0,,,,,2,r,False,,,,j,T_target,3,,1306,dte,1 (837).jpg,0.0-19.0-1.0-0.3,1,True,,0,True,,True,False,,True,False,,7,0,4,0,,,,,,,0,,,,,images/1 (837).jpg,,B,,,30,0,,dte,,,finalTest,,1,0,160,26526,0.44,925,image-keyboard-response,,,,"current target, not in next trial",,,,885
dte,DuNLG9GIvNChlQiTF86g,,,,False,,,2,r,,,,,,T_target,3,,1306,dte,1 (637).jpg,0.0-12.0-2.0-0.1,1,True,True,0,,True,True,False,True,True,False,8,8,0,6,0,,,1,,,,,,,,,images/1 (637).jpg,B,B,,2,2,0,,dte,,,initial_study,29,29,0,288,20866,0.35,540,image-keyboard-response,1,1,0,"current target, not in next trial",,,,885
dte,Dx09V1dYdGw1BydHwyE8,,,,False,,,2,r,,,,,,T_nontarget,3,,1306,dte,1 (1305).jpg,0.0-11.0-2.0-0.10,1,True,True,0,,True,True,False,False,False,False,7,7,0,10,0,,,1,,,,,,,,,images/1 (1305).jpg,A,A,,11,11,0,,dte,,,initial_study,0,0,0,479,19778,0.33,473,image-keyboard-response,1,0,0,"studied only, not in trial",,,,885
dte,DzYyiQVCFIucAkj9b6Qz,,0,,,,,2,r,False,,,,f,F,3,,1306,dte,1 (2347).jpg,0.0-21.0-1.0-0.24,1,True,,0,False,,False,False,,False,False,,0,0,6,1,,,1,,,,0,,,,,images/1 (2347).jpg,,FF,,,0,0,,dte,,,finalTest,,0,0,277,27919,0.47,1042,image-keyboard-response,,,,final Foil,,,,885
dte,E52jjBVDXxiYCv4ZguMM,,,,,,,2,r,,,,,,,3,,1306,dte,,0.0-8.0-5.0-0.7,1,,,0,,,,,,,,4,,,,,,,,,8,,,,,,,8,,,8,,,,,dte,,53,digitPresentation,,,,,16480,0.28,274,html-keyboard-response,,,,,,,,885
dte,E83rkOsoYap3m4K5PxwO,,0,,,,,2,r,False,,,,j,T_nontarget,3,,1306,dte,1 (1068).jpg,0.0-20.0-1.0-0.12,1,True,,0,True,,True,False,,False,False,,10,0,5,0,,,,,,,0,,,,,images/1 (1068).jpg,,A,,,21,0,,dte,,,finalTest,,0,0,217,27189,0.45,982,image-keyboard-response,,,,"studied only, not in trial",,,,885
dte,EBFSPSjoagKkz8LLU3MP,,0,,,,,2,r,False,False,False,,j,T_foil,3,,1306,dte,1 (1586).jpg,0.0-24.0-1.0-0.7,1,True,,0,True,,False,False,,True,True,,1,2,9,1,,,,,,,0,,,,,images/1 (1586).jpg,,Fnn,,,0,0,,dte,,,finalTest,,22,25,404,29489,0.49,1169,image-keyboard-response,,,,"tested only, in next trial",,,,885
dte,EVHxmvXKL04LJMafQxbt,,0,,,,,2,r,False,False,False,,j,T_foil,3,,1306,dte,1 (921).jpg,0.0-22.0-1.0-0.11,1,True,,0,True,,False,False,,True,True,,4,5,7,4,,,,,,,0,,,,,images/1 (921).jpg,,Fnn,,,0,0,,dte,,,finalTest,,25,13,312,28361,0.47,1077,image-keyboard-response,,,,"tested only, in next trial",,,,885
dte,EVROTyKrAwzdIZINw53C,,,,,,,2,r,,,,,,,3,,1306,dte,,0.0-7.0-5.0-0.2,1,,,0,,,,,,,,3,,,,,,,,,3,,,,,,,4,,,4,,,,,dte,,48,digitPresentation,,,,,15224,0.25,193,html-keyboard-response,,,,,,,,885
dte,EVS4XXO9zhuSKxoaks5k,,,,False,,,2,r,,,,,,T_target,3,,1306,dte,1 (1255).jpg,0.0-9.0-2.0-0.19,1,True,True,0,,True,True,False,True,True,False,5,5,0,3,0,,,1,,,,,,,,,images/1 (1255).jpg,B,B,,20,20,0,,dte,,,initial_study,10,10,0,139,17461,0.29,330,image-keyboard-response,1,1,0,"current target, not in next trial",,,,885
dte,EbMOZkR8ub9z36O3nUfj,,0,,,,,2,r,False,,,,f,F,3,,1306,dte,1 (1482).jpg,0.0-24.0-1.0-0.23,1,True,,0,False,,False,False,,False,False,,0,0,9,7,,,1,,,,0,,,,,images/1 (1482).jpg,,FF,,,0,0,,dte,,,finalTest,,0,0,420,29688,0.50,1185,image-keyboard-response,,,,final Foil,,,,885
dte,Ecnn0fIs2A5YD3sNGYkc,,0,,,,,2,r,False,,,,f,F,3,,1306,dte,1 (42).jpg,0.0-19.0-1.0-0.46,1,True,,0,False,,False,False,,False,False,,0,0,4,1,,,1,,,,0,,,,,images/1 (42).jpg,,FF,,,0,0,,dte,,,finalTest,,0,0,203,27027,0.45,968,image-keyboard-response,,,,final Foil,,,,885
dte,EdJAElcTCZPRh4NsN0Gn,,,,True,,,2,r,,,,,,T_nontarget,3,,1306,dte,1 (2158).jpg,0.0-10.0-2.0-0.6,1,True,True,0,,True,True,False,False,False,True,6,6,7,5,0,,,1,,,,,,,,,images/1 (2158).jpg,Cn+1,Cn,,7,7,0,,dte,,,initial_study,0,0,27,208,18504,0.31,393,image-keyboard-response,1,0,1,"studied only, in next trial",,,,885
dte,EliqcekTL8xa6NQdkNtW,,0,,True,,,2,r,False,False,False,,f,T_foil,3,,1306,dte,1 (2334).jpg,0.0-14.0-10.0-0.25,1,False,False,0,False,False,True,False,True,True,False,10,9,0,,0,,,2,,,,0,,,,,images/1 (2334).jpg,Dn,Dn,,0,27,0,,dte,,,initialTest_response,26,27,0,0,24479,0.41,760,image-keyboard-response,1,1,1,"current target, in next trial, from last trial",,,,885
dte,EqXNfxr0vPye9wUbwkrK,,0,,False,,,2,r,False,False,,,j,T_target,3,,1306,dte,1 (675).jpg,0.0-14.0-10.0-0.28,1,True,True,0,False,True,True,False,True,True,False,10,10,0,,0,,,1,,,,0,,,,,images/1 (675).jpg,B,B,,27,27,0,,dte,,,initialTest_response,29,29,0,89,24542,0.41,763,image-keyboard-response,1,1,0,"current target, not in next trial",,,,885
dte,ErH8GwTlU1CSjW5hhBOu,,,,,,,2,r,,,,,,,3,,1306,dte,,0.0-12.0-5.0-0.5,1,,,0,,,,,,,,8,,,,,,,,,6,,,,,,,4,,,4,,,,,dte,,47,digitPresentation,,,,,21283,0.36,576,html-keyboard-response,,,,,,,,885
dte,Eyc9zAtyG84KreAA49sQ,,,,,,,2,r,,,,,,,3,,1306,dte,,0.0-10.0-5.0-0.5,1,,,0,,,,,,,,6,,,,,,,,,6,,,,,,,6,,,6,,,,,dte,,47,digitPresentation,,,,,18870,0.32,424,html-keyboard-response,,,,,,,,885
dte,F1kB7D3X2uGDDAvlGwcT,,0,,,,,2,r,False,,,,j,T_target,3,,1306,dte,1 (1639).jpg,0.0-24.0-1.0-0.26,1,True,,0,True,,True,False,,True,False,,6,0,9,0,,,,,,,0,,,,,images/1 (1639).jpg,,B,,,20,0,,dte,,,finalTest,,28,0,423,29727,0.50,1188,image-keyboard-response,,,,"current target, not in next trial",,,,885
dte,F2bSijoumFdNWNgyuHhp,,,,False,,,2,r,,,,,,T_target,3,,1306,dte,1 (2315).jpg,0.0-14.0-2.0-0.14,1,True,True,0,,True,True,False,True,True,False,10,10,0,4,0,,,1,,,,,,,,,images/1 (2315).jpg,B,B,,15,15,0,,dte,,,initial_study,15,15,0,157,23562,0.39,705,image-keyboard-response,1,1,0,"current target, not in next trial",,,,885
dte,F9COAeisM8dSxNhKc75Z,,0,,,,,2,r,False,,,,f,F,3,,1306,dte,1 (1175).jpg,0.0-22.0-1.0-0.17,1,True,,0,False,,False,False,,False,False,,0,0,7,0,,,1,,,,0,,,,,images/1 (1175).jpg,,FF,,,0,0,,dte,,,finalTest,,0,0,318,28434,0.47,1083,image-keyboard-response,,,,final Foil,,,,885
dte,FEJrRCsVCLoWhTJuxSbg,,0,,True,,,2,r,False,False,,,j,T_target,3,,1306,dte,1 (2053).jpg,0.0-12.0-10.0-0.19,1,True,True,0,False,True,True,False,True,True,True,8,8,9,,0,,,1,,,,0,,,,,images/1 (2053).jpg,Dn+1,Dn,,16,16,0,,dte,,,initialTest_response,20,20,5,413,21931,0.37,602,image-keyboard-response,1,1,1,"current target, in next trial",,,,885
dte,FEz49lkwBf9BH0QB6sdG,,0,,,,,2,r,False,,,,f,F,3,,1306,dte,1 (600).jpg,0.0-19.0-1.0-0.31,1,True,,0,False,,False,False,,False,False,,0,0,4,1,,,1,,,,0,,,,,images/1 (600).jpg,,FF,,,0,0,,dte,,,finalTest,,0,0,188,26851,0.45,953,image-keyboard-response,,,,final Foil,,,,885
dte,FJTEDho8mWPSZi1dkP6j,,0,,True,,,2,r,False,False,,,f,T_foil,3,,1306,dte,1 (741).jpg,0.0-13.0-10.0-0.15,1,True,True,0,False,False,False,False,True,True,True,9,9,10,10,0,,,1,,,,0,,,,,images/1 (741).jpg,Fnn+1,Fnn,,0,0,0,,dte,,,initialTest_response,16,16,19,465,23028,0.38,674,image-keyboard-response,0,1,1,"tested only, in next trial",,,,885
dte,FK44SXube1Trgt4a5lNM,,,,True,,,2,r,,,,,,T_target,3,,1306,dte,1 (931).jpg,0.0-10.0-2.0-0.8,1,True,True,0,,True,True,False,True,True,True,6,6,7,4,0,,,1,,,,,,,,,images/1 (931).jpg,Dn+1,Dn,,9,9,0,,dte,,,initial_study,15,15,15,170,18528,0.31,395,image-keyboard-response,1,1,1,"current target, in next trial",,,,885
dte,FKOyG7us2P6o2dZ3HeSa,,,,False,,,2,r,,,,,,T_target,3,,1306,dte,1 (722).jpg,0.0-10.0-2.0-0.2,1,False,True,0,,True,True,False,True,True,False,6,6,0,,0,,,1,,,,,,,,,images/1 (722).jpg,B,B,,3,3,0,,dte,,,initial_study,8,8,0,0,18457,0.31,389,image-keyboard-response,1,1,0,"current target, not in next trial",,,,885
dte,FKYuzE0XKHHYLBy9ej0E,,,,False,,,2,r,,,,,,T_target,3,,1306,dte,1 (2240).jpg,0.0-7.0-2.0-0.24,1,True,True,0,,True,True,False,True,True,False,3,3,0,1,0,,,1,,,,,,,,,images/1 (2240).jpg,B,B,,25,25,0,,dte,,,initial_study,9,9,0,57,15107,0.25,183,image-keyboard-response,1,1,0,"current target, not in next trial",,,,885
dte,FQgziNty2D3VrEkJbaP2,,,,False,,,2,r,,,,,,T_target,3,,1306,dte,1 (671).jpg,0.0-7.0-2.0-0.2,1,False,True,0,,True,True,False,True,True,False,3,3,0,,0,,,1,,,,,,,,,images/1 (671).jpg,B,B,,3,3,0,,dte,,,initial_study,6,6,0,0,14843,0.25,161,image-keyboard-response,1,1,0,"current target, not in next trial",,,,885
dte,FSprPYE09atImp5lsIsm,,0,,,,,2,r,False,,,,f,F,3,,1306,dte,1 (2327).jpg,0.0-21.0-1.0-0.22,1,True,,0,False,,False,False,,False,False,,0,0,6,9,,,1,,,,0,,,,,images/1 (2327).jpg,,FF,,,0,0,,dte,,,finalTest,,0,0,275,27896,0.47,1040,image-keyboard-response,,,,final Foil,,,,885
dte,FUDVZjgAqfyzX2QQ6RvZ,,,,False,,,2,r,,,,,,T_target,3,,1306,dte,1 (2107).jpg,0.0-14.0-2.0-0.13,1,False,True,0,,True,True,False,True,True,False,10,10,0,,0,,,1,,,,,,,,,images/1 (2107).jpg,B,B,,14,14,0,,dte,,,initial_study,22,22,0,0,23551,0.39,704,image-keyboard-response,1,1,0,"current target, not in next trial",,,,885
dte,FeMNR6TzqAkmhqmk06H5,,,,False,,,2,r,,,,,,T_nontarget,3,,1306,dte,1 (1455).jpg,0.0-8.0-2.0-0.17,1,True,True,0,,True,True,False,False,False,False,4,4,0,1,0,,,1,,,,,,,,,images/1 (1455).jpg,A,A,,18,18,0,,dte,,,initial_study,0,0,0,50,16222,0.27,252,image-keyboard-response,1,0,0,"studied only, not in trial",,,,885
dte,FgQNFck6FNBiaoBvzWHx,,0,,True,,,2,r,False,,False,,f,T_foil,3,,1306,dte,1 (1705).jpg,0.0-10.0-10.0-0.13,1,False,False,0,False,False,True,False,True,False,True,6,5,6,,0,,,2,,,,0,,,,,images/1 (1705).jpg,Cn,Cn,,0,23,0,,dte,,,initialTest_response,14,0,14,0,19245,0.32,444,image-keyboard-response,1,0,1,"studied only, in next trial, from last trial",,,,885
dte,FicmhbfkmOwzWA4nFq5I,,0,,True,,,2,r,False,,False,,f,T_foil,3,,1306,dte,1 (509).jpg,0.0-9.0-10.0-0.2,1,False,False,0,False,False,True,False,True,False,True,5,4,5,,0,,,2,,,,0,,,,,images/1 (509).jpg,Cn,Cn,,0,3,0,,dte,,,initialTest_response,3,0,3,0,17778,0.30,357,image-keyboard-response,1,0,1,"studied only, in next trial, from last trial",,,,885
dte,FizrvVMUlsxpQQYdSvNC,,0,,False,,,2,r,False,False,,,j,T_target,3,,1306,dte,1 (133).jpg,0.0-5.0-10.0-0.23,1,True,True,0,False,True,True,False,True,True,False,1,1,False,,0,,,1,,,,0,,,,,images/1 (133).jpg,B,B,,9,9,0,,dte,,,initialTest_response,24,24,0,331,13467,0.23,74,image-keyboard-response,1,1,0,"current target, not in next trial",,,,885
dte,Fl3cQdu4R5A9OTyMFPN1,,,,,,,2,r,False,,,51,,,3,,1306,dte,,0.0-9.0-6.0-0.0-0.0,1,,,0,,,,,,,,,,,,,,,,,,,,"{'answer': 'Skipped after 0.01 seconds', 'question': ""Please enter the sum using your number keyboard <p>Press 'enter' to continue.</p>""}",Please enter the sum using your number keyboard <p>Press 'enter' to continue.</p>,,,,,,,,,,,dte,,,answer_counting,,,,,17689,0.30,351,survey-text,,,,,,,,885
dte,Ftoq3JUBiVBGIBD8ywUj,,,,,,,2,r,,,,,,,3,,1306,dte,,0.0-8.0-5.0-0.1,1,,,0,,,,,,,,4,,,,,,,,,2,,,,,,,8,,,8,,,,,dte,,53,digitPresentation,,,,,16406,0.27,268,html-keyboard-response,,,,,,,,885
dte,Fvzu5yuWTEzI3RO3qyHe,,,,,,,2,r,,,,,,,3,,1306,dte,,0.0-9.0-9.0-0.0,1,,,0,,,,,,,,,,,,,,,,,,,,,,,,"<div style=""font-size:60px;"">+</div>",,,,,,,,dte,,,fixation,,,,,17722,0.30,354,html-keyboard-response,,,,,,,,885
dte,Fwqg60UCgXsq75G2LNpZ,,0,,,,,2,r,False,,,,j,T_nontarget,3,,1306,dte,1 (846).jpg,0.0-16.0-1.0-0.34,1,True,,0,True,,True,False,,False,False,,10,0,1,0,,,,,,,0,,,,,images/1 (846).jpg,,A,,,11,0,,dte,,,finalTest,,0,0,35,25010,0.42,800,image-keyboard-response,,,,"studied only, not in trial",,,,885
