parent_document_id,document_id,HaveSeenImages,accumulated_accuracy,all_accumulated_accuracy,anRepeatedItem,browser,browser_version,codeversion,condition,correct,correct_appear1,correct_appear2,correct_response,correct_response_key,current_assignmentTypesWithinList,designversion,failed_audio,failed_images,failed_video,fullscreen,height,id,id_picName,internal_node_id,is_changedfullscreen,is_chosenFinal,is_currentObjAppear1,is_finished,is_old,is_studied_appear0_initial,is_studied_appear1_initial,is_studied_appear2_initial,is_tested_appear0_initial,is_tested_appear1_initial,is_tested_appear2_initial,listNum_appear0_initial,listNum_appear1_initial,listNum_appear2_initial,listNum_infinalOrder,listNum_pickedFrom,microphone,mobile,num_CurrObjAppear,os,presPos_digit,question_order,recognition_correct,response,responsesum,rt,session_id,stimulus,stimulusConditionName_nPlusOneTrial,stimulusConditions,stimulus_id,studyPos_appear0_initial,studyPos_appear1_initial,studyPos_appear2_initial,study_id,subject_id,success,sum_currList,task,testPos_appear0_initial,testPos_appear1_initial,testPos_appear2_initial,testPos_final,time_elapsed,timeout,timepassed_mins,trial_index,trial_type,type_code_studiedCurr,type_code_testiedCurr,type_code_testiedNext,type_comment,vsync_rate,webaudio,webcam,width
lets,03C4qqrdIupgn0oS7qcI,No,,0,False,,,2,r,,,,,,T_target,3,,,,,1306,lets,1 (1824).jpg,0.0-6.0-2.0-0.29,1,True,True,0,,True,True,False,True,True,False,2,2,0,4,0,,,1,,,,,,,,,images/1 (1824).jpg,B,B,,30,30,0,,lets,,,initial_study,19,19,0,172,9483,,0.17,112,image-keyboard-response,1,1,0,"current target, not in next trial",,,,884
lets,03cudA21CIs0lET3VOX5,No,0,0,False,,,2,r,False,False,,,j,T_target,3,,,,,1306,lets,1 (346).jpg,0.0-12.0-10.0-0.23,1,True,True,0,False,True,True,False,True,True,False,8,8,False,,0,,,1,,,,0,,,,,images/1 (346).jpg,B,B,,23,23,0,,lets,,,initialTest_response,24,24,0,282,17499,,0.30,606,image-keyboard-response,1,1,0,"current target, not in next trial",,,,884
lets,070YI5yx2K8WZ5zRarPD,No,0,0,False,,,2,r,False,False,,,j,T_target,3,,,,,1306,lets,1 (1049).jpg,0.0-12.0-10.0-0.17,1,True,True,0,False,True,True,False,True,True,False,8,8,False,,0,,,1,,,,0,,,,,images/1 (1049).jpg,B,B,,5,5,0,,lets,,,initialTest_response,18,18,0,191,17362,,0.30,600,image-keyboard-response,1,1,0,"current target, not in next trial",,,,884
lets,0916s0dXPOYm64mel0La,No,0,0,,,,2,r,False,,,,f,F,3,,,,,1306,lets,1 (1232).jpg,0.0-23.0-1.0-0.34,1,True,,0,False,,False,False,,False,False,,0,0,8,3,,,1,,,,0,,,,,images/1 (1232).jpg,,FF,,,0,0,,lets,,,finalTest,,0,0,383,24654,,0.42,1148,image-keyboard-response,,,,final Foil,,,,884
lets,0C8RbCwQ0luM5JQ1rTyr,No,,0,,,,2,r,,,,,,,3,,,,,1306,lets,,0.0-12.0-0.0-0.0,1,,,0,,,,,,,,,,,,,,,,,,,,,,,,"
    <p style='text-align: justify;color: black;background: white;font: caption-;''>
        Press the 'enter' key to see the next list of pictures. </p>
    ",,,,,,,,lets,,,,,,,,16443,,0.29,537,html-keyboard-response,,,,,,,,884
lets,0NDgnA27kpSybKk8sSnZ,No,0,0,,,,2,r,False,,,,j,T_nontarget,3,,,,,1306,lets,1 (2238).jpg,0.0-16.0-1.0-0.30,1,True,,0,True,,True,False,,False,False,,10,0,1,0,,,,,,,0,,,,,images/1 (2238).jpg,,Cn,,,20,0,,lets,,,finalTest,,0,0,31,20454,,0.35,796,image-keyboard-response,,,,"studied only, in next trial",,,,884
lets,0OZnbDDdBhE44NbgqVFe,No,0,0,False,,,2,r,False,False,,,j,T_target,3,,,,,1306,lets,1 (1423).jpg,0.0-8.0-10.0-0.6,1,True,True,0,False,True,True,False,True,True,False,4,4,False,,0,,,1,,,,0,,,,,images/1 (1423).jpg,B,B,,30,30,0,,lets,,,initialTest_response,7,7,0,369,12179,,0.22,285,image-keyboard-response,1,1,0,"current target, not in next trial",,,,884
lets,0OqoA0wzxOR0yw1k7Jdy,No,0,0,,,,2,r,False,,,,j,T_target,3,,,,,1306,lets,1 (228).jpg,0.0-23.0-1.0-0.6,1,True,,0,True,,True,False,,True,False,,7,0,8,0,,,,,,,0,,,,,images/1 (228).jpg,,B,,,30,0,,lets,,,finalTest,,12,0,355,24304,,0.42,1120,image-keyboard-response,,,,"current target, not in next trial",,,,884
lets,0XPVwlbF8KpfmO1ilVX9,No,0,0,,,,2,r,False,,,,j,T_foil,3,,,,,1306,lets,1 (1729).jpg,0.0-18.0-1.0-0.44,1,True,,0,True,,False,False,,True,False,,9,False,3,9,,,,,,,0,,,,,images/1 (1729).jpg,,Fn,,,0,0,,lets,,,finalTest,,14,0,153,21897,,0.38,918,image-keyboard-response,,,,"tested only, not in next trial",,,,884
lets,0aBsRUFBxvCZVoUx0eDl,No,0,0,False,,,2,r,False,False,,,j,T_target,3,,,,,1306,lets,1 (643).jpg,0.0-9.0-10.0-0.22,1,False,True,0,False,True,True,False,True,True,False,5,5,False,,0,,,1,,,,0,,,,,images/1 (643).jpg,B,B,,27,27,0,,lets,,,initialTest_response,23,23,0,0,13781,,0.24,377,image-keyboard-response,1,1,0,"current target, not in next trial",,,,884
lets,0b8BHSa8nj8WnVPDQnuO,No,0,0,,,,2,r,False,,,,j,T_nontarget,3,,,,,1306,lets,1 (952).jpg,0.0-22.0-1.0-0.26,1,True,,0,True,,True,False,,False,False,,4,0,7,0,,,,,,,0,,,,,images/1 (952).jpg,,A,,,8,0,,lets,,,finalTest,,0,0,327,23973,,0.41,1092,image-keyboard-response,,,,"studied only, not in trial",,,,884
lets,0fbYRZy9XjnHL0KwC1Zv,No,0,0,,,,2,r,False,,,,j,T_foil,3,,,,,1306,lets,1 (1723).jpg,0.0-25.0-1.0-0.16,1,True,,0,True,,False,False,,True,False,,8,False,10,8,,,,,,,0,,,,,images/1 (1723).jpg,,Fn,,,0,0,,lets,,,finalTest,,6,0,461,25593,,0.44,1226,image-keyboard-response,,,,"tested only, not in next trial",,,,884
lets,0gDT3BXCakdeVKvzUiWw,No,0,0,True,,,2,r,False,False,False,,j,T_target,3,,,,,1306,lets,1 (2289).jpg,0.0-8.0-10.0-0.24,1,True,True,0,False,True,True,False,True,True,True,4,4,5,,0,,,1,,,,0,,,,,images/1 (2289).jpg,Dn+1,Dn,,3,3,0,,lets,,,initialTest_response,25,25,11,380,12577,,0.22,303,image-keyboard-response,1,1,1,"current target, in next trial",,,,884
lets,0k2vakOltePwtPCu6yco,No,,0,False,,,2,r,,,,,,T_target,3,,,,,1306,lets,1 (297).jpg,0.0-8.0-2.0-0.1,1,False,True,0,,True,True,False,True,True,False,4,4,0,,0,,,1,,,,,,,,,images/1 (297).jpg,B,B,,2,2,0,,lets,,,initial_study,8,8,0,0,11559,,0.21,236,image-keyboard-response,1,1,0,"current target, not in next trial",,,,884
lets,0nc13TXM9CdI8mYC6Hxi,No,0,0,,,,2,r,False,,,,f,F,3,,,,,1306,lets,1 (1432).jpg,0.0-24.0-1.0-0.39,1,True,,0,False,,False,False,,False,False,,0,0,9,0,,,1,,,,0,,,,,images/1 (1432).jpg,,FF,,,0,0,,lets,,,finalTest,,0,0,436,25291,,0.43,1201,image-keyboard-response,,,,final Foil,,,,884
lets,0yHCv2PHgVSpNa0sc8yl,No,0,0,False,,,2,r,False,False,,,j,T_target,3,,,,,1306,lets,1 (192).jpg,0.0-7.0-10.0-0.4,1,False,True,0,False,True,True,False,True,True,False,3,3,False,,0,,,1,,,,0,,,,,images/1 (192).jpg,B,B,,1,1,0,,lets,,,initialTest_response,5,5,0,0,10944,,0.20,207,image-keyboard-response,1,1,0,"current target, not in next trial",,,,884
lets,0ztgECdPYV5Re3tQdkqQ,No,0,0,,,,2,r,False,,,,f,F,3,,,,,1306,lets,1 (1623).jpg,0.0-23.0-1.0-0.28,1,True,,0,False,,False,False,,False,False,,0,0,8,9,,,1,,,,0,,,,,images/1 (1623).jpg,,FF,,,0,0,,lets,,,finalTest,,0,0,377,24577,,0.42,1142,image-keyboard-response,,,,final Foil,,,,884
lets,10wiXGs0uCBoLTBSFUVW,No,0,0,True,,,2,r,False,False,False,,f,T_foil,3,,,,,1306,lets,1 (824).jpg,0.0-9.0-10.0-0.3,1,True,True,0,False,False,False,False,True,True,True,5,5,6,5,0,,,1,,,,0,,,,,images/1 (824).jpg,Fnn+1,Fnn,,0,0,0,,lets,,,initialTest_response,4,4,23,224,13352,,0.24,358,image-keyboard-response,0,1,1,"tested only, in next trial",,,,884
lets,1K7t6E2GHZBJVvqx7gJy,No,0,0,True,,,2,r,False,False,False,,f,T_foil,3,,,,,1306,lets,1 (379).jpg,0.0-13.0-10.0-0.15,1,True,True,0,False,False,False,False,True,True,True,9,9,10,9,0,,,1,,,,0,,,,,images/1 (379).jpg,Fnn+1,Fnn,,0,0,0,,lets,,,initialTest_response,16,16,25,425,18532,,0.32,674,image-keyboard-response,0,1,1,"tested only, in next trial",,,,884
lets,1KWtMeRn2g0iHu8cGUHk,No,0,0,,,,2,r,False,,,,f,F,3,,,,,1306,lets,1 (209).jpg,0.0-21.0-1.0-0.26,1,True,,0,False,,False,False,,False,False,,0,0,6,0,,,1,,,,0,,,,,images/1 (209).jpg,,FF,,,0,0,,lets,,,finalTest,,0,0,279,23397,,0.40,1044,image-keyboard-response,,,,final Foil,,,,884
lets,1LCYcCztRGTPnnr3uZa6,No,,0,False,,,2,r,,,,,,T_nontarget,3,,,,,1306,lets,1 (1094).jpg,0.0-7.0-2.0-0.16,1,False,True,0,,True,True,False,False,False,False,3,3,0,,0,,,1,,,,,,,,,images/1 (1094).jpg,A,A,,17,17,0,,lets,,,initial_study,0,0,0,0,10531,,0.19,175,image-keyboard-response,1,0,0,"studied only, not in trial",,,,884
lets,1NIZHQn0hddho0ZHd1wL,No,0,0,True,,,2,r,False,False,False,,f,T_foil,3,,,,,1306,lets,1 (1842).jpg,0.0-12.0-10.0-0.6,1,True,False,0,False,False,False,False,True,False,True,8,7,8,,0,,,2,,,,0,,,,,images/1 (1842).jpg,Fnn,Fnn,,0,0,0,,lets,,,initialTest_response,7,0,7,331,17107,,0.30,589,image-keyboard-response,0,1,1,"tested only, in next trial, from last trial",,,,884
lets,1QPneDt1lA7rgTPtCGEy,No,0,0,True,,,2,r,False,False,False,,f,T_foil,3,,,,,1306,lets,1 (814).jpg,0.0-8.0-10.0-0.12,1,True,False,0,False,False,False,False,True,False,True,4,3,4,,0,,,2,,,,0,,,,,images/1 (814).jpg,Fnn,Fnn,,0,0,0,,lets,,,initialTest_response,13,0,13,431,12309,,0.22,291,image-keyboard-response,0,1,1,"tested only, in next trial, from last trial",,,,884
lets,1ZKBQ3N5OnLSsgfiQCFj,No,0,0,,,,2,r,False,,,,j,T_target,3,,,,,1306,lets,1 (1257).jpg,0.0-21.0-1.0-0.46,1,True,,0,True,,True,False,,True,False,,4,0,6,0,,,,,,,0,,,,,images/1 (1257).jpg,,B,,,16,0,,lets,,,finalTest,,17,0,299,23650,,0.41,1064,image-keyboard-response,,,,"current target, not in next trial",,,,884
lets,1ebTQSBYSpiJkgMVzBHs,No,,0,False,,,2,r,,,,,,T_nontarget,3,,,,,1306,lets,1 (1536).jpg,0.0-13.0-2.0-0.4,1,True,True,0,,True,True,False,False,False,False,9,9,0,5,0,,,1,,,,,,,,,images/1 (1536).jpg,A,A,,5,5,0,,lets,,,initial_study,0,0,0,219,17730,,0.31,619,image-keyboard-response,1,0,0,"studied only, not in trial",,,,884
lets,1gYGSbAqhMCKVjYvZhKR,No,0,0,,,,2,r,False,False,False,,j,T_foil,3,,,,,1306,lets,1 (861).jpg,0.0-25.0-1.0-0.46,1,True,,0,True,,False,False,,True,True,,6,7,10,6,,,,,,,0,,,,,images/1 (861).jpg,,Fnn,,,0,0,,lets,,,finalTest,,12,29,491,25969,,0.45,1256,image-keyboard-response,,,,"tested only, in next trial",,,,884
lets,1kQRLPlMeMsHSnQvKIuu,No,0,0,,,,2,r,False,,,,j,T_target,3,,,,,1306,lets,1 (1824).jpg,0.0-19.0-1.0-0.15,1,True,,0,True,,True,False,,True,False,,2,0,4,0,,,,,,,0,,,,,images/1 (1824).jpg,,B,,,30,0,,lets,,,finalTest,,19,0,172,22127,,0.38,937,image-keyboard-response,,,,"current target, not in next trial",,,,884
lets,1lFxKtsled2JLvFEmh2s,No,0,0,,,,2,r,False,,,,f,F,3,,,,,1306,lets,1 (1008).jpg,0.0-18.0-1.0-0.8,1,True,,0,False,,False,False,,False,False,,0,0,3,7,,,1,,,,0,,,,,images/1 (1008).jpg,,FF,,,0,0,,lets,,,finalTest,,0,0,117,21482,,0.37,882,image-keyboard-response,,,,final Foil,,,,884
lets,1nL6mpgJRRpuAzRTvGMf,No,,0,True,,,2,r,,,,,,T_target,3,,,,,1306,lets,1 (1290).jpg,0.0-5.0-2.0-0.29,1,False,True,0,,True,True,False,True,True,True,1,1,2,,0,,,1,,,,,,,,,images/1 (1290).jpg,Dn+1,Dn,,30,30,0,,lets,,,initial_study,29,29,7,0,8169,,0.15,36,image-keyboard-response,1,1,1,"current target, in next trial",,,,1394
lets,1qWUUbEE53v8yE6N2CRf,No,0,0,False,,,2,r,False,False,,,j,T_target,3,,,,,1306,lets,1 (1024).jpg,0.0-14.0-10.0-0.16,1,True,True,0,False,True,True,False,True,True,False,10,10,0,,0,,,1,,,,0,,,,,images/1 (1024).jpg,B,B,,9,9,0,,lets,,,initialTest_response,17,17,0,141,19756,,0.34,751,image-keyboard-response,1,1,0,"current target, not in next trial",,,,884
lets,21pq8aUYmejxG6qZDXFZ,No,0,0,True,,,2,r,False,,False,,f,T_foil,3,,,,,1306,lets,1 (767).jpg,0.0-8.0-10.0-0.11,1,True,False,0,False,False,True,False,True,False,True,4,3,4,,0,,,2,,,,0,,,,,images/1 (767).jpg,Cn,Cn,,0,25,0,,lets,,,initialTest_response,12,0,12,416,12287,,0.22,290,image-keyboard-response,1,0,1,"studied only, in next trial, from last trial",,,,884
lets,25AEgxRDNCrqCWhJXPJD,No,0,0,False,,,2,r,False,False,,,j,T_target,3,,,,,1306,lets,1 (2007).jpg,0.0-5.0-10.0-0.12,1,False,True,0,False,True,True,False,True,True,False,1,1,False,,0,,,1,,,,0,,,,,images/1 (2007).jpg,B,B,,9,9,0,,lets,,,initialTest_response,13,13,0,0,8748,,0.16,63,image-keyboard-response,1,1,0,"current target, not in next trial",,,,1394
lets,25IGRzN8xJamyftJ0o3L,No,,0,False,,,2,r,,,,,,T_nontarget,3,,,,,1306,lets,1 (1632).jpg,0.0-14.0-2.0-0.20,1,True,True,0,,True,True,False,False,False,False,10,10,0,5,0,,,1,,,,,,,,,images/1 (1632).jpg,A,A,,21,21,0,,lets,,,initial_study,0,0,0,213,19132,,0.33,711,image-keyboard-response,1,0,0,"studied only, not in trial",,,,884
lets,26E2wzO1QxMqoOI2AznF,No,,0,False,,,2,r,,,,,,T_nontarget,3,,,,,1306,lets,1 (903).jpg,0.0-6.0-2.0-0.14,1,False,True,0,,True,True,False,False,False,False,2,2,0,,0,,,1,,,,,,,,,images/1 (903).jpg,A,A,,15,15,0,,lets,,,initial_study,0,0,0,0,9315,,0.17,97,image-keyboard-response,1,0,0,"studied only, not in trial",,,,884
lets,27DBl242sjGxEU5mSdk4,No,0,0,,,,2,r,False,,,,f,F,3,,,,,1306,lets,1 (454).jpg,0.0-25.0-1.0-0.12,1,True,,0,False,,False,False,,False,False,,0,0,10,0,,,1,,,,0,,,,,images/1 (454).jpg,,FF,,,0,0,,lets,,,finalTest,,0,0,457,25547,,0.44,1222,image-keyboard-response,,,,final Foil,,,,884
lets,27XlxC9cnsIHCJHUKLFu,No,0,0,False,,,2,r,False,False,,,f,T_foil,3,,,,,1306,lets,1 (1537).jpg,0.0-5.0-10.0-0.4,1,True,True,0,False,False,False,False,True,True,False,1,1,False,5,0,,,1,,,,0,,,,,images/1 (1537).jpg,Fn+1,Fn,,0,0,0,,lets,,,initialTest_response,5,5,0,229,8552,,0.16,55,image-keyboard-response,0,1,0,"tested only, not in next trial",,,,1394
lets,29WYcezkB7qPTGi0UaZv,No,,0,False,,,2,r,,,,,,T_nontarget,3,,,,,1306,lets,1 (1890).jpg,0.0-7.0-2.0-0.7,1,False,True,0,,True,True,False,False,False,False,3,3,0,,0,,,1,,,,,,,,,images/1 (1890).jpg,A,A,,8,8,0,,lets,,,initial_study,0,0,0,0,10429,,0.19,166,image-keyboard-response,1,0,0,"studied only, not in trial",,,,884
lets,2BL4kUbx74u4dLTYN1qR,No,0,0,,,,2,r,False,,,,j,T_target,3,,,,,1306,lets,1 (1462).jpg,0.0-19.0-1.0-0.6,1,True,,0,True,,True,False,,True,False,,7,0,4,0,,,,,,,0,,,,,images/1 (1462).jpg,,B,,,10,0,,lets,,,finalTest,,2,0,163,22015,,0.38,928,image-keyboard-response,,,,"current target, not in next trial",,,,884
lets,2Gdn1pITig19XyC4zkUo,No,0,0,,,,2,r,False,,False,,j,T_nontarget,3,,,,,1306,lets,1 (891).jpg,0.0-16.0-1.0-0.2,1,True,,0,True,,True,False,,False,True,,4,5,1,0,,,,,,,0,,,,,images/1 (891).jpg,,Cn,,,5,0,,lets,,,finalTest,,0,6,3,20100,,0.35,768,image-keyboard-response,,,,"studied only, in next trial",,,,884
lets,2N3W5gCxyTCfSdonSESt,No,0,0,False,,,2,r,False,False,,,j,T_target,3,,,,,1306,lets,1 (1121).jpg,0.0-8.0-10.0-0.20,1,True,True,0,False,True,True,False,True,True,False,4,4,False,,0,,,1,,,,0,,,,,images/1 (1121).jpg,B,B,,9,9,0,,lets,,,initialTest_response,21,21,0,63,12490,,0.22,299,image-keyboard-response,1,1,0,"current target, not in next trial",,,,884
lets,2ODeIXkoED0tlboj0PKB,No,,0,,,,2,r,,,,,,,3,,,,,1306,lets,,0.0-10.0-5.0-0.4,1,,,0,,,,,,,,6,,,,,,,,,5,,,,,,,6,,,6,,,,,lets,,56,digitPresentation,,,,,14425,,0.25,423,html-keyboard-response,,,,,,,,884
lets,2R68OSjLo9ESdQDeSwtf,No,,0,False,,,2,r,,,,,,T_nontarget,3,,,,,1306,lets,1 (1996).jpg,0.0-5.0-2.0-0.7,1,True,True,0,,True,True,False,False,False,False,1,1,0,8,0,,,1,,,,,,,,,images/1 (1996).jpg,A,A,,8,8,0,,lets,,,initial_study,0,0,0,382,7783,,0.14,14,image-keyboard-response,1,0,0,"studied only, not in trial",,,,1394
lets,2TUp05Mv2YPOZS6VhdRD,No,0,0,,,,2,r,False,,,,j,T_nontarget,3,,,,,1306,lets,1 (1981).jpg,0.0-18.0-1.0-0.1,1,True,,0,True,,True,False,,False,False,,9,0,3,0,,,,,,,0,,,,,images/1 (1981).jpg,,A,,,15,0,,lets,,,finalTest,,0,0,110,21401,,0.37,875,image-keyboard-response,,,,"studied only, not in trial",,,,884
lets,2U90eEK06fJoPiZRtabm,No,,0,False,,,2,r,,,,,,T_nontarget,3,,,,,1306,lets,1 (882).jpg,0.0-14.0-2.0-0.25,1,True,True,0,,True,True,False,False,False,False,10,10,0,3,0,,,1,,,,,,,,,images/1 (882).jpg,A,A,,26,26,0,,lets,,,initial_study,0,0,0,126,19186,,0.33,716,image-keyboard-response,1,0,0,"studied only, not in trial",,,,884
lets,2Y5rH0pDpSPdQ921UfUB,No,,0,,,,2,r,,,,,,,3,,,,,1306,lets,,0.0-8.0-5.0-0.7,1,,,0,,,,,,,,4,,,,,,,,,8,,,,,,,8,,,8,,,,,lets,,56,digitPresentation,,,,,11985,,0.21,274,html-keyboard-response,,,,,,,,884
lets,2aiaZoD19sY2WryPDn0e,No,0,0,True,,,2,r,False,False,,,f,T_foil,3,,,,,1306,lets,1 (1738).jpg,0.0-14.0-10.0-0.25,1,False,True,0,False,False,False,False,True,True,False,10,10,0,,0,,,1,,,,0,,,,,images/1 (1738).jpg,Fnn+1,Fnn,,0,0,0,,lets,,,initialTest_response,26,26,0,0,19954,,0.35,760,image-keyboard-response,0,1,1,"tested only, in next trial",,,,884
lets,2kSp3sRECFTmbXczYKe7,No,0,0,False,,,2,r,False,False,,,j,T_target,3,,,,,1306,lets,1 (2201).jpg,0.0-9.0-10.0-0.18,1,False,True,0,False,True,True,False,True,True,False,5,5,False,,0,,,1,,,,0,,,,,images/1 (2201).jpg,B,B,,20,20,0,,lets,,,initialTest_response,19,19,0,0,13692,,0.24,373,image-keyboard-response,1,1,0,"current target, not in next trial",,,,884
lets,2nzGVlByHsNLYLuH6fNA,No,0,0,False,,,2,r,False,False,,,f,T_foil,3,,,,,1306,lets,1 (2002).jpg,0.0-5.0-10.0-0.0,1,True,True,0,False,False,False,False,True,True,False,1,1,False,5,0,,,1,,,,0,,,,,images/1 (2002).jpg,Fn+1,Fn,,0,0,0,,lets,,,initialTest_response,1,1,0,222,8418,,0.15,51,image-keyboard-response,0,1,0,"tested only, not in next trial",,,,1394
lets,2oZSuJGMvUwM450zlIGZ,No,,0,True,,,2,r,,,,,,T_target,3,,,,,1306,lets,1 (433).jpg,0.0-9.0-2.0-0.25,1,True,True,0,,True,True,False,True,True,True,5,5,6,10,0,,,1,,,,,,,,,images/1 (433).jpg,Dn+1,Dn,,26,26,0,,lets,,,initial_study,17,17,1,452,13050,,0.23,336,image-keyboard-response,1,1,1,"current target, in next trial",,,,884
lets,2p3Sc4meFwrBCwyifWDb,No,0,0,,,,2,r,False,,,,j,T_target,3,,,,,1306,lets,1 (1799).jpg,0.0-19.0-1.0-0.18,1,True,,0,True,,True,False,,True,False,,7,0,4,0,,,,,,,0,,,,,images/1 (1799).jpg,,B,,,12,0,,lets,,,finalTest,,15,0,175,22161,,0.38,940,image-keyboard-response,,,,"current target, not in next trial",,,,884
lets,2tBcEKWymuX7ISS3mbVc,No,,0,False,,,2,r,,,,,,T_target,3,,,,,1306,lets,1 (1697).jpg,0.0-7.0-2.0-0.11,1,True,True,0,,True,True,False,True,True,False,3,3,0,2,0,,,1,,,,,,,,,images/1 (1697).jpg,B,B,,12,12,0,,lets,,,initial_study,1,1,0,93,10476,,0.19,170,image-keyboard-response,1,1,0,"current target, not in next trial",,,,884
lets,2tGYYfG2F88Hg0ICARk8,No,0,0,False,,,2,r,False,False,,,j,T_target,3,,,,,1306,lets,1 (1636).jpg,0.0-9.0-10.0-0.14,1,True,True,0,False,True,True,False,True,True,False,5,5,False,,0,,,1,,,,0,,,,,images/1 (1636).jpg,B,B,,5,5,0,,lets,,,initialTest_response,15,15,0,353,13604,,0.24,369,image-keyboard-response,1,1,0,"current target, not in next trial",,,,884
lets,2wGLCycqMHfjLlw6hf2I,No,0,0,False,,,2,r,False,False,,,j,T_target,3,,,,,1306,lets,1 (1400).jpg,0.0-10.0-10.0-0.21,1,True,True,0,False,True,True,False,True,True,False,6,6,False,,0,,,1,,,,0,,,,,images/1 (1400).jpg,B,B,,22,22,0,,lets,,,initialTest_response,22,22,0,59,14991,,0.26,452,image-keyboard-response,1,1,0,"current target, not in next trial",,,,884
lets,2wz7hvnXsU7CmgEaIaJq,No,0,0,True,,,2,r,False,False,False,,f,T_foil,3,,,,,1306,lets,1 (1804).jpg,0.0-12.0-10.0-0.29,1,True,False,0,False,False,True,False,True,True,True,8,7,8,,0,,,2,,,,0,,,,,images/1 (1804).jpg,Dn,Dn,,0,2,0,,lets,,,initialTest_response,30,2,30,84,17640,,0.31,612,image-keyboard-response,1,1,1,"current target, in next trial, from last trial",,,,884
lets,2yMvfyfxub2dM1J7vsuE,No,0,0,,,,2,r,False,,,,f,F,3,,,,,1306,lets,1 (843).jpg,0.0-18.0-1.0-0.24,1,True,,0,False,,False,False,,False,False,,0,0,3,0,,,1,,,,0,,,,,images/1 (843).jpg,,FF,,,0,0,,lets,,,finalTest,,0,0,133,21668,,0.37,898,image-keyboard-response,,,,final Foil,,,,884
lets,31qGHc2LJNM0APeyb92h,No,0,0,,,,2,r,False,,,,j,T_foil,3,,,,,1306,lets,1 (819).jpg,0.0-21.0-1.0-0.28,1,True,,0,True,,False,False,,True,False,,3,False,6,3,,,,,,,0,,,,,images/1 (819).jpg,,Fn,,,0,0,,lets,,,finalTest,,16,0,281,23421,,0.40,1046,image-keyboard-response,,,,"tested only, not in next trial",,,,884
lets,3CwuTkfbxhNqi06n6FVD,No,0,0,,,,2,r,False,False,False,,j,T_target,3,,,,,1306,lets,1 (1602).jpg,0.0-23.0-1.0-0.1,1,True,,0,True,,True,False,,True,False,,9,0,8,0,,,,,,,0,,,,,images/1 (1602).jpg,,Dn,,,30,0,,lets,,,finalTest,,7,0,350,24250,,0.42,1115,image-keyboard-response,,,,"current target, in next trial",,,,884
lets,3FDW87dBvGtCrhB434kU,No,0,0,,,,2,r,False,,,,j,T_target,3,,,,,1306,lets,1 (964).jpg,0.0-23.0-1.0-0.43,1,True,,0,True,,True,False,,True,False,,1,0,8,0,,,,,,,0,,,,,images/1 (964).jpg,,B,,,15,0,,lets,,,finalTest,,23,0,392,24762,,0.43,1157,image-keyboard-response,,,,"current target, not in next trial",,,,884
lets,3JNBPXjVHUMhjGD71gXb,No,0,0,,,,2,r,False,,,,f,F,3,,,,,1306,lets,1 (918).jpg,0.0-24.0-1.0-0.11,1,True,,0,False,,False,False,,False,False,,0,0,9,9,,,1,,,,0,,,,,images/1 (918).jpg,,FF,,,0,0,,lets,,,finalTest,,0,0,408,24954,,0.43,1173,image-keyboard-response,,,,final Foil,,,,884
lets,3JgyNt8LJCKZNOAmlAOc,No,0,0,True,,,2,r,False,False,False,,f,T_foil,3,,,,,1306,lets,1 (507).jpg,0.0-9.0-10.0-0.24,1,True,True,0,False,False,False,False,True,True,True,5,5,6,7,0,,,1,,,,0,,,,,images/1 (507).jpg,Fnn+1,Fnn,,0,0,0,,lets,,,initialTest_response,25,25,29,337,13825,,0.24,379,image-keyboard-response,0,1,1,"tested only, in next trial",,,,884
lets,3LO2eVouT3kgxk520X45,No,,0,False,,,2,r,,,,,,T_target,3,,,,,1306,lets,1 (1779).jpg,0.0-10.0-2.0-0.23,1,False,True,0,,True,True,False,True,True,False,6,6,0,,0,,,1,,,,,,,,,images/1 (1779).jpg,B,B,,24,24,0,,lets,,,initial_study,5,5,0,0,14279,,0.25,410,image-keyboard-response,1,1,0,"current target, not in next trial",,,,884
lets,3LzFPzt47ryfyJP4AdSZ,No,,0,False,,,2,r,,,,,,T_nontarget,3,,,,,1306,lets,1 (1023).jpg,0.0-9.0-2.0-0.21,1,True,True,0,,True,True,False,False,False,False,5,5,0,7,0,,,1,,,,,,,,,images/1 (1023).jpg,A,A,,22,22,0,,lets,,,initial_study,0,0,0,338,13004,,0.23,332,image-keyboard-response,1,0,0,"studied only, not in trial",,,,884
lets,3N3hJdPd2En8JG4wmKZm,No,0,0,,,,2,r,False,,,,f,F,3,,,,,1306,lets,1 (1283).jpg,0.0-18.0-1.0-0.37,1,True,,0,False,,False,False,,False,False,,0,0,3,8,,,1,,,,0,,,,,images/1 (1283).jpg,,FF,,,0,0,,lets,,,finalTest,,0,0,146,21816,,0.38,911,image-keyboard-response,,,,final Foil,,,,884
lets,3O9XiF1G1XhdK3yIo4LV,No,0,0,True,,,2,r,False,,False,,f,T_foil,3,,,,,1306,lets,1 (607).jpg,0.0-10.0-10.0-0.17,1,True,False,0,False,False,True,False,True,False,True,6,5,6,,0,,,2,,,,0,,,,,images/1 (607).jpg,Cn,Cn,,0,9,0,,lets,,,initialTest_response,18,0,18,389,14899,,0.26,448,image-keyboard-response,1,0,1,"studied only, in next trial, from last trial",,,,884
lets,3RvMgfDiOPhdDTealviP,No,0,0,,,,2,r,False,,,,f,F,3,,,,,1306,lets,1 (1662).jpg,0.0-16.0-1.0-0.41,1,True,,0,False,,False,False,,False,False,,0,0,1,8,,,1,,,,0,,,,,images/1 (1662).jpg,,FF,,,0,0,,lets,,,finalTest,,0,0,42,20582,,0.36,807,image-keyboard-response,,,,final Foil,,,,884
lets,3SbApiT64AxTHl3Y3Wrl,No,,0,False,,,2,r,,,,,,T_target,3,,,,,1306,lets,1 (981).jpg,0.0-8.0-2.0-0.16,1,True,True,0,,True,True,False,True,True,False,4,4,0,4,0,,,1,,,,,,,,,images/1 (981).jpg,B,B,,17,17,0,,lets,,,initial_study,23,23,0,159,11727,,0.21,251,image-keyboard-response,1,1,0,"current target, not in next trial",,,,884
lets,3ZYk30mvhCgDCindsW64,No,0,0,,,,2,r,False,,,,f,F,3,,,,,1306,lets,1 (370).jpg,0.0-17.0-1.0-0.46,1,True,,0,False,,False,False,,False,False,,0,0,2,9,,,1,,,,0,,,,,images/1 (370).jpg,,FF,,,0,0,,lets,,,finalTest,,0,0,107,21365,,0.37,872,image-keyboard-response,,,,final Foil,,,,884
lets,3dAnPUQN0RZkfKOENBKr,No,0,0,,,,2,r,False,,,,f,F,3,,,,,1306,lets,1 (2253).jpg,0.0-25.0-1.0-0.30,1,True,,0,False,,False,False,,False,False,,0,0,10,10,,,1,,,,0,,,,,images/1 (2253).jpg,,FF,,,0,0,,lets,,,finalTest,,0,0,475,25766,,0.44,1240,image-keyboard-response,,,,final Foil,,,,884
lets,3e6n0D3JTAmIIRde83bg,No,,0,False,,,2,r,,,,,,T_target,3,,,,,1306,lets,1 (52).jpg,0.0-10.0-2.0-0.5,1,True,True,0,,True,True,False,True,True,False,6,6,0,4,0,,,1,,,,,,,,,images/1 (52).jpg,B,B,,6,6,0,,lets,,,initial_study,11,11,0,199,14053,,0.25,392,image-keyboard-response,1,1,0,"current target, not in next trial",,,,884
lets,3epEZRefuqFPM5co9s59,No,0,0,,,,2,r,False,False,False,,j,T_foil,3,,,,,1306,lets,1 (1588).jpg,0.0-22.0-1.0-0.3,1,True,,0,True,,False,False,,True,True,,8,9,7,8,,,,,,,0,,,,,images/1 (1588).jpg,,Fnn,,,0,0,,lets,,,finalTest,,16,21,304,23706,,0.41,1069,image-keyboard-response,,,,"tested only, in next trial",,,,884
lets,3evbIi9Kg8g4nxWx57ZN,No,,0,False,,,2,r,,,,,,T_target,3,,,,,1306,lets,1 (1549).jpg,0.0-10.0-2.0-0.29,1,True,True,0,,True,True,False,True,True,False,6,6,0,10,0,,,1,,,,,,,,,images/1 (1549).jpg,B,B,,30,30,0,,lets,,,initial_study,20,20,0,482,14349,,0.25,416,image-keyboard-response,1,1,0,"current target, not in next trial",,,,884
lets,3ihTCQOAisqpcqSOr9Wf,No,0,0,,,,2,r,False,,,,j,T_nontarget,3,,,,,1306,lets,1 (208).jpg,0.0-22.0-1.0-0.12,1,True,,0,True,,True,False,,False,False,,3,0,7,0,,,,,,,0,,,,,images/1 (208).jpg,,A,,,5,0,,lets,,,finalTest,,0,0,313,23811,,0.41,1078,image-keyboard-response,,,,"studied only, not in trial",,,,884
lets,3p3eC230lyQNQA1B1W2U,No,,0,,,,2,r,,,,,,,3,,,,,1306,lets,,0.0-7.0-5.0-0.6,1,,,0,,,,,,,,3,,,,,,,,,7,,,,,,,6,,,6,,,,,lets,,52,digitPresentation,,,,,10788,,0.19,197,html-keyboard-response,,,,,,,,884
lets,3thW8rBuTKzDfrd5ehge,No,0,0,False,,,2,r,False,False,,,j,T_target,3,,,,,1306,lets,1 (1316).jpg,0.0-5.0-10.0-0.27,1,True,True,0,False,True,True,False,True,True,False,1,1,False,,0,,,1,,,,0,,,,,images/1 (1316).jpg,B,B,,18,18,0,,lets,,,initialTest_response,28,28,0,98,9082,,0.16,78,image-keyboard-response,1,1,0,"current target, not in next trial",,,,1394
lets,3tqAzLNT1MIowQcjCAFw,No,0,0,False,,,2,r,False,False,,,f,T_foil,3,,,,,1306,lets,1 (2040).jpg,0.0-8.0-10.0-0.0,1,True,True,0,False,False,False,False,True,True,False,4,4,False,2,0,,,1,,,,0,,,,,images/1 (2040).jpg,Fn+1,Fn,,0,0,0,,lets,,,initialTest_response,1,1,0,77,12043,,0.21,279,image-keyboard-response,0,1,0,"tested only, not in next trial",,,,884
lets,3w8c4a6Brumi6b4vblKQ,No,0,0,True,,,2,r,False,False,False,,f,T_foil,3,,,,,1306,lets,1 (1588).jpg,0.0-13.0-10.0-0.20,1,True,False,0,False,False,False,False,True,False,True,9,8,9,,0,,,2,,,,0,,,,,images/1 (1588).jpg,Fnn,Fnn,,0,0,0,,lets,,,initialTest_response,21,0,21,304,18642,,0.32,679,image-keyboard-response,0,1,1,"tested only, in next trial, from last trial",,,,884
lets,3yozCd8uPkgw9IO1Yf19,No,0,0,,,,2,r,False,,,,f,F,3,,,,,1306,lets,1 (985).jpg,0.0-18.0-1.0-0.10,1,True,,0,False,,False,False,,False,False,,0,0,3,0,,,1,,,,0,,,,,images/1 (985).jpg,,FF,,,0,0,,lets,,,finalTest,,0,0,119,21506,,0.37,884,image-keyboard-response,,,,final Foil,,,,884
lets,3yva7bibpK3vbeZXUSyR,No,0,0,,,,2,r,False,,,,j,T_foil,3,,,,,1306,lets,1 (1640).jpg,0.0-18.0-1.0-0.28,1,True,,0,True,,False,False,,True,False,,1,False,3,1,,,,,,,0,,,,,images/1 (1640).jpg,,Fn,,,0,0,,lets,,,finalTest,,8,0,137,21712,,0.37,902,image-keyboard-response,,,,"tested only, not in next trial",,,,884
lets,42ktrJEGwYrg6vcNSJOG,No,,0,False,,,2,r,,,,,,T_nontarget,3,,,,,1306,lets,1 (1381).jpg,0.0-8.0-2.0-0.27,1,False,True,0,,True,True,False,False,False,False,4,4,0,,0,,,1,,,,,,,,,images/1 (1381).jpg,A,A,,28,28,0,,lets,,,initial_study,0,0,0,0,11849,,0.21,262,image-keyboard-response,1,0,0,"studied only, not in trial",,,,884
lets,43PeQEMWOUNDb2ny0oCU,No,0,0,False,,,2,r,False,False,,,j,T_target,3,,,,,1306,lets,1 (2119).jpg,0.0-10.0-10.0-0.25,1,True,True,0,False,True,True,False,True,True,False,6,6,False,,0,,,1,,,,0,,,,,images/1 (2119).jpg,B,B,,12,12,0,,lets,,,initialTest_response,26,26,0,365,15079,,0.26,456,image-keyboard-response,1,1,0,"current target, not in next trial",,,,884
lets,44UXlV1owSnOrLoDcMoE,No,0,0,,,,2,r,False,,,,j,T_target,3,,,,,1306,lets,1 (551).jpg,0.0-22.0-1.0-0.43,1,True,,0,True,,True,False,,True,False,,2,0,7,0,,,,,,,0,,,,,images/1 (551).jpg,,B,,,5,0,,lets,,,finalTest,,2,0,344,24182,,0.42,1109,image-keyboard-response,,,,"current target, not in next trial",,,,884
lets,45qScQU4I3I1Qk1Tn6Jy,No,,0,,,,2,r,,,,,,,3,,,,,1306,lets,,0.0-5.0-5.0-0.5,1,,,0,,,,,,,,1,,,,,,,,,6,,,,,,,8,,,8,,,,,lets,,62,digitPresentation,,,,,8301,,0.15,44,html-keyboard-response,,,,,,,,1394
lets,46PTnOLRl4XSQztbb7El,No,,0,,,,2,r,,,,,,,3,,,,,1306,lets,,0.0-6.0-5.0-0.2,1,,,0,,,,,,,,2,,,,,,,,,3,,,,,,,4,,,4,,,,,lets,,46,digitPresentation,,,,,9543,,0.17,117,html-keyboard-response,,,,,,,,884
lets,47WZgGVPcEAkzGRrBbEb,No,,0,,,,2,r,,,,,,,3,,,,,1306,lets,,0.0-13.0-5.0-0.5,1,,,0,,,,,,,,9,,,,,,,,,6,,,,,,,5,,,5,,,,,lets,,50,digitPresentation,,,,,18120,,0.31,652,html-keyboard-response,,,,,,,,884
lets,4CVUFb9BWos78oPfKTjY,No,0,0,,,,2,r,False,,,,j,T_nontarget,3,,,,,1306,lets,1 (635).jpg,0.0-23.0-1.0-0.8,1,True,,0,True,,True,False,,False,False,,7,0,8,0,,,,,,,0,,,,,images/1 (635).jpg,,A,,,1,0,,lets,,,finalTest,,0,0,357,24327,,0.42,1122,image-keyboard-response,,,,"studied only, not in trial",,,,884
lets,4FeIOzhNL6mtW7tZYRVn,No,0,0,,,,2,r,False,,,,f,F,3,,,,,1306,lets,1 (1013).jpg,0.0-24.0-1.0-0.45,1,True,,0,False,,False,False,,False,False,,0,0,9,7,,,1,,,,0,,,,,images/1 (1013).jpg,,FF,,,0,0,,lets,,,finalTest,,0,0,442,25364,,0.44,1207,image-keyboard-response,,,,final Foil,,,,884
lets,4IbgidgGdN0l1uN0uUtt,No,0,0,,,,2,r,False,,,,j,T_nontarget,3,,,,,1306,lets,1 (1194).jpg,0.0-17.0-1.0-0.31,1,True,,0,True,,True,False,,False,False,,8,0,2,0,,,,,,,0,,,,,images/1 (1194).jpg,,A,,,10,0,,lets,,,finalTest,,0,0,92,21185,,0.37,857,image-keyboard-response,,,,"studied only, not in trial",,,,884
lets,4LGRJFWtYy6rQyUWoQdq,No,0,0,True,,,2,r,False,False,False,,f,T_foil,3,,,,,1306,lets,1 (1905).jpg,0.0-7.0-10.0-0.10,1,False,False,0,False,False,True,False,True,True,True,3,2,3,,0,,,2,,,,0,,,,,images/1 (1905).jpg,Dn,Dn,,0,20,0,,lets,,,initialTest_response,11,20,11,0,11080,,0.20,213,image-keyboard-response,1,1,1,"current target, in next trial, from last trial",,,,884
lets,4Mglgvr186DQxGoi18nI,No,0,0,,,,2,r,False,,,,j,T_foil,3,,,,,1306,lets,1 (1270).jpg,0.0-19.0-1.0-0.44,1,True,,0,True,,False,False,,True,False,,10,0,4,10,,,,,,,0,,,,,images/1 (1270).jpg,,Fn,,,0,0,,lets,,,finalTest,,27,0,201,22483,,0.39,966,image-keyboard-response,,,,"tested only, not in next trial",,,,884
lets,4OOUhtKwsVO1pMSfayYb,No,0,0,,,,2,r,False,,,,j,T_nontarget,3,,,,,1306,lets,1 (2188).jpg,0.0-20.0-1.0-0.3,1,True,,0,True,,True,False,,False,False,,6,0,5,0,,,,,,,0,,,,,images/1 (2188).jpg,,A,,,2,0,,lets,,,finalTest,,0,0,208,22564,,0.39,973,image-keyboard-response,,,,"studied only, not in trial",,,,884
lets,4Oxa3fdXtu7M5Js4x9vD,No,0,0,False,,,2,r,False,False,,,j,T_target,3,,,,,1306,lets,1 (2341).jpg,0.0-10.0-10.0-0.29,1,True,True,0,False,True,True,False,True,True,False,6,6,False,,0,,,1,,,,0,,,,,images/1 (2341).jpg,B,B,,10,10,0,,lets,,,initialTest_response,30,30,0,308,15166,,0.27,460,image-keyboard-response,1,1,0,"current target, not in next trial",,,,884
lets,4RedGGq4OYl8cK1Ufe2M,No,,0,True,,,2,r,,,,,,T_target,3,,,,,1306,lets,1 (1416).jpg,0.0-6.0-2.0-0.25,1,True,True,0,,True,True,False,True,True,True,2,2,3,5,0,,,1,,,,,,,,,images/1 (1416).jpg,Dn+1,Dn,,26,26,0,,lets,,,initial_study,27,27,25,240,9438,,0.17,108,image-keyboard-response,1,1,1,"current target, in next trial",,,,884
lets,4VNpK1m2xdKMPvORcQ4v,No,,0,False,,,2,r,,,,,,T_target,3,,,,,1306,lets,1 (18).jpg,0.0-5.0-2.0-0.10,1,False,True,0,,True,True,False,True,True,False,1,1,0,,0,,,1,,,,,,,,,images/1 (18).jpg,B,B,,11,11,0,,lets,,,initial_study,20,20,0,0,7834,,0.14,17,image-keyboard-response,1,1,0,"current target, not in next trial",,,,1394
lets,4WhLmhfLIeENsTGqLVPz,No,0,0,True,,,2,r,False,False,False,,f,T_foil,3,,,,,1306,lets,1 (2197).jpg,0.0-7.0-10.0-0.14,1,False,True,0,False,False,False,False,True,True,True,3,3,4,,0,,,1,,,,0,,,,,images/1 (2197).jpg,Fnn+1,Fnn,,0,0,0,,lets,,,initialTest_response,15,15,20,0,11170,,0.20,217,image-keyboard-response,0,1,1,"tested only, in next trial",,,,884
lets,4ZKzM3hZPkAcTMpxDmZq,No,,0,False,,,2,r,,,,,,T_nontarget,3,,,,,1306,lets,1 (42).jpg,0.0-14.0-2.0-0.17,1,True,True,0,,True,True,False,False,False,False,10,10,0,6,0,,,1,,,,,,,,,images/1 (42).jpg,A,A,,18,18,0,,lets,,,initial_study,0,0,0,272,19098,,0.33,708,image-keyboard-response,1,0,0,"studied only, not in trial",,,,884
lets,4bBA8d8RWTZFiQ0ZvNQM,No,0,0,True,,,2,r,False,False,False,,f,T_foil,3,,,,,1306,lets,1 (1249).jpg,0.0-13.0-10.0-0.12,1,True,True,0,False,False,False,False,True,True,True,9,9,10,4,0,,,1,,,,0,,,,,images/1 (1249).jpg,Fnn+1,Fnn,,0,0,0,,lets,,,initialTest_response,13,13,15,195,18465,,0.32,671,image-keyboard-response,0,1,1,"tested only, in next trial",,,,884
lets,4bmHt79Bi7CGFZJj4FDA,No,,0,False,,,2,r,,,,,,T_target,3,,,,,1306,lets,1 (1121).jpg,0.0-8.0-2.0-0.8,1,True,True,0,,True,True,False,True,True,False,4,4,0,2,0,,,1,,,,,,,,,images/1 (1121).jpg,B,B,,9,9,0,,lets,,,initial_study,21,21,0,63,11638,,0.21,243,image-keyboard-response,1,1,0,"current target, not in next trial",,,,884
lets,4pKdp2W8b3NmfSWA4KJl,No,,0,False,,,2,r,,,,,,T_nontarget,3,,,,,1306,lets,1 (208).jpg,0.0-7.0-2.0-0.4,1,True,True,0,,True,True,False,False,False,False,3,3,0,7,0,,,1,,,,,,,,,images/1 (208).jpg,A,A,,5,5,0,,lets,,,initial_study,0,0,0,313,10396,,0.19,163,image-keyboard-response,1,0,0,"studied only, not in trial",,,,884
lets,4zWeRtenwO8YRBzNPFLL,No,0,0,,,,2,r,False,,,,j,T_nontarget,3,,,,,1306,lets,1 (201).jpg,0.0-22.0-1.0-0.6,1,True,,0,True,,True,False,,False,False,,2,0,7,0,,,,,,,0,,,,,images/1 (201).jpg,,A,,,17,0,,lets,,,finalTest,,0,0,307,23740,,0.41,1072,image-keyboard-response,,,,"studied only, not in trial",,,,884
lets,51EmQr8SC5x6KupRdkom,No,,0,False,,,2,r,,,,,,T_target,3,,,,,1306,lets,1 (1216).jpg,0.0-6.0-2.0-0.23,1,True,True,0,,True,True,False,True,True,False,2,2,0,8,0,,,1,,,,,,,,,images/1 (1216).jpg,B,B,,24,24,0,,lets,,,initial_study,4,4,0,349,9415,,0.17,106,image-keyboard-response,1,1,0,"current target, not in next trial",,,,884
lets,538u2Wt6AJ6Wd58e309q,No,,0,True,,,2,r,,,,,,T_nontarget,3,,,,,1306,lets,1 (2160).jpg,0.0-13.0-2.0-0.16,1,True,True,0,,True,True,False,False,False,True,9,9,10,8,0,,,1,,,,,,,,,images/1 (2160).jpg,Cn+1,Cn,,17,17,0,,lets,,,initial_study,0,0,14,390,17865,,0.31,631,image-keyboard-response,1,0,1,"studied only, in next trial",,,,884
lets,53EYUUg1qzxIRF9hkRxt,No,0,0,False,,,2,r,False,False,,,j,T_target,3,,,,,1306,lets,1 (119).jpg,0.0-9.0-10.0-0.17,1,True,True,0,False,True,True,False,True,True,False,5,5,False,,0,,,1,,,,0,,,,,images/1 (119).jpg,B,B,,19,19,0,,lets,,,initialTest_response,18,18,0,273,13671,,0.24,372,image-keyboard-response,1,1,0,"current target, not in next trial",,,,884
lets,53IsWv5WCif7fAKrWsKd,No,,0,,,,2,r,,,,,,,3,,,,,1306,lets,,0.0-13.0-5.0-0.6,1,,,0,,,,,,,,9,,,,,,,,,7,,,,,,,6,,,6,,,,,lets,,50,digitPresentation,,,,,18131,,0.32,653,html-keyboard-response,,,,,,,,884
lets,57iCoQdCw1qJmV1ykHxt,No,0,0,False,,,2,r,False,False,,,j,T_target,3,,,,,1306,lets,1 (211).jpg,0.0-6.0-10.0-0.9,1,True,True,0,False,True,True,False,True,True,False,2,2,False,,0,,,1,,,,0,,,,,images/1 (211).jpg,B,B,,3,3,0,,lets,,,initialTest_response,10,10,0,330,9852,,0.18,136,image-keyboard-response,1,1,0,"current target, not in next trial",,,,884
lets,58ylXGBPuZKpS3D51FH9,No,0,0,False,,,2,r,False,False,,,j,T_target,3,,,,,1306,lets,1 (375).jpg,0.0-12.0-10.0-0.19,1,False,True,0,False,True,True,False,True,True,False,8,8,False,,0,,,1,,,,0,,,,,images/1 (375).jpg,B,B,,4,4,0,,lets,,,initialTest_response,20,20,0,0,17406,,0.30,602,image-keyboard-response,1,1,0,"current target, not in next trial",,,,884
lets,59IIralyuQY2hPgjq8Ux,No,,0,False,,,2,r,,,,,,T_target,3,,,,,1306,lets,1 (2178).jpg,0.0-9.0-2.0-0.15,1,True,True,0,,True,True,False,True,True,False,5,5,0,8,0,,,1,,,,,,,,,images/1 (2178).jpg,B,B,,16,16,0,,lets,,,initial_study,3,3,0,394,12935,,0.23,326,image-keyboard-response,1,1,0,"current target, not in next trial",,,,884
lets,5MQZYY5qYa8MRZdxga9p,No,0,0,False,,,2,r,False,False,,,j,T_target,3,,,,,1306,lets,1 (1697).jpg,0.0-7.0-10.0-0.0,1,True,True,0,False,True,True,False,True,True,False,3,3,False,,0,,,1,,,,0,,,,,images/1 (1697).jpg,B,B,,12,12,0,,lets,,,initialTest_response,1,1,0,93,10855,,0.19,203,image-keyboard-response,1,1,0,"current target, not in next trial",,,,884
lets,5OIxw4CIvZo74PvaQilo,No,0,0,True,,,2,r,False,,False,,f,T_foil,3,,,,,1306,lets,1 (34).jpg,0.0-6.0-10.0-0.21,1,False,False,0,False,False,True,False,True,False,True,2,1,2,,0,,,2,,,,0,,,,,images/1 (34).jpg,Cn,Cn,,0,27,0,,lets,,,initialTest_response,22,0,22,0,10131,,0.18,148,image-keyboard-response,1,0,1,"studied only, in next trial, from last trial",,,,884
lets,5SSE95a2sFhLxYvqYPg9,No,,0,False,,,2,r,,,,,,T_target,3,,,,,1306,lets,1 (2013).jpg,0.0-7.0-2.0-0.29,1,True,True,0,,True,True,False,True,True,False,3,3,0,10,0,,,1,,,,,,,,,images/1 (2013).jpg,B,B,,30,30,0,,lets,,,initial_study,28,28,0,490,10691,,0.19,188,image-keyboard-response,1,1,0,"current target, not in next trial",,,,884
lets,5XKzyTIgF0HBC3JH7C5P,No,0,0,,,,2,r,False,,,,j,T_foil,3,,,,,1306,lets,1 (896).jpg,0.0-16.0-1.0-0.17,1,True,,0,True,,False,False,,True,False,,9,False,1,9,,,,,,,0,,,,,images/1 (896).jpg,,Fn,,,0,0,,lets,,,finalTest,,12,0,18,20283,,0.35,783,image-keyboard-response,,,,"tested only, not in next trial",,,,884
lets,5aoA2Iuxb3g6OaCWOf04,No,0,0,,,,2,r,False,,,,f,F,3,,,,,1306,lets,1 (566).jpg,0.0-23.0-1.0-0.36,1,True,,0,False,,False,False,,False,False,,0,0,8,3,,,1,,,,0,,,,,images/1 (566).jpg,,FF,,,0,0,,lets,,,finalTest,,0,0,385,24679,,0.42,1150,image-keyboard-response,,,,final Foil,,,,884
lets,5bgejDtNDa30Xuiar33y,No,0,0,,,,2,r,False,,,,f,F,3,,,,,1306,lets,1 (2140).jpg,0.0-16.0-1.0-0.56,1,True,,0,False,,False,False,,False,False,,0,0,1,0,,,1,,,,0,,,,,images/1 (2140).jpg,,FF,,,0,0,,lets,,,finalTest,,0,0,57,20772,,0.36,822,image-keyboard-response,,,,final Foil,,,,884
lets,5dG7qmKoEguB1SeT4hPc,No,,0,,,,2,r,,,,,,,3,,,,,1306,lets,,0.0-9.0-5.0-0.2,1,,,0,,,,,,,,5,,,,,,,,,3,,,,,,,9,,,9,,,,,lets,,63,digitPresentation,,,,,13173,,0.23,345,html-keyboard-response,,,,,,,,884
lets,5eolVCdxFfed7Ay4Vpcx,No,,0,False,,,2,r,,,,,,T_target,3,,,,,1306,lets,1 (2007).jpg,0.0-5.0-2.0-0.8,1,False,True,0,,True,True,False,True,True,False,1,1,0,,0,,,1,,,,,,,,,images/1 (2007).jpg,B,B,,9,9,0,,lets,,,initial_study,13,13,0,0,7801,,0.14,15,image-keyboard-response,1,1,0,"current target, not in next trial",,,,1394
lets,5gCXL6x5XBmSYReJYaFJ,No,0,0,False,,,2,r,False,False,,,j,T_target,3,,,,,1306,lets,1 (1327).jpg,0.0-13.0-10.0-0.29,1,True,True,0,False,True,True,False,True,True,False,9,9,False,,0,,,1,,,,0,,,,,images/1 (1327).jpg,B,B,,8,8,0,,lets,,,initialTest_response,30,30,0,156,18856,,0.33,688,image-keyboard-response,1,1,0,"current target, not in next trial",,,,884
lets,5nNo7EydTnM5DCbu1uPB,No,0,0,False,,,2,r,False,False,,,f,T_foil,3,,,,,1306,lets,1 (1358).jpg,0.0-9.0-10.0-0.25,1,True,True,0,False,False,False,False,True,True,False,5,5,False,9,0,,,1,,,,0,,,,,images/1 (1358).jpg,Fn+1,Fn,,0,0,0,,lets,,,initialTest_response,26,26,0,411,13857,,0.24,380,image-keyboard-response,0,1,0,"tested only, not in next trial",,,,884
lets,5nQdsz2IALeuICTTrZzK,No,,0,False,,,2,r,,,,,,T_target,3,,,,,1306,lets,1 (636).jpg,0.0-14.0-2.0-0.2,1,False,True,0,,True,True,False,True,True,False,10,10,0,,0,,,1,,,,,,,,,images/1 (636).jpg,B,B,,3,3,0,,lets,,,initial_study,20,20,0,0,18921,,0.33,693,image-keyboard-response,1,1,0,"current target, not in next trial",,,,884
lets,5p1NsFMmdRp4dmWdZXjO,No,0,0,,,,2,r,False,,,,f,F,3,,,,,1306,lets,1 (1300).jpg,0.0-25.0-1.0-0.6,1,True,,0,False,,False,False,,False,False,,0,0,10,8,,,1,,,,0,,,,,images/1 (1300).jpg,,FF,,,0,0,,lets,,,finalTest,,0,0,451,25470,,0.44,1216,image-keyboard-response,,,,final Foil,,,,884
lets,5qEgXFwhqwG8tzY3VpLY,No,0,0,False,,,2,r,False,False,,,j,T_target,3,,,,,1306,lets,1 (2228).jpg,0.0-9.0-10.0-0.28,1,False,True,0,False,True,True,False,True,True,False,5,5,False,,0,,,1,,,,0,,,,,images/1 (2228).jpg,B,B,,28,28,0,,lets,,,initialTest_response,29,29,0,0,13931,,0.25,383,image-keyboard-response,1,1,0,"current target, not in next trial",,,,884
lets,5t0RYPphIJf3auLk3Bcg,No,,0,False,,,2,r,,,,,,T_nontarget,3,,,,,1306,lets,1 (137).jpg,0.0-11.0-2.0-0.25,1,True,True,0,,True,True,False,False,False,False,7,7,0,3,0,,,1,,,,,,,,,images/1 (137).jpg,A,A,,26,26,0,,lets,,,initial_study,0,0,0,132,15522,,0.27,488,image-keyboard-response,1,0,0,"studied only, not in trial",,,,884
lets,5tES7bUYJqHIx1vsBBXK,No,0,0,,,,2,r,False,,,,f,F,3,,,,,1306,lets,1 (1851).jpg,0.0-24.0-1.0-0.8,1,True,,0,False,,False,False,,False,False,,0,0,9,2,,,1,,,,0,,,,,images/1 (1851).jpg,,FF,,,0,0,,lets,,,finalTest,,0,0,405,24918,,0.43,1170,image-keyboard-response,,,,final Foil,,,,884
lets,5uWqzmhNawyRpuM7hH9J,No,,0,False,,,2,r,,,,,,T_nontarget,3,,,,,1306,lets,1 (2202).jpg,0.0-12.0-2.0-0.7,1,False,True,0,,True,True,False,False,False,False,8,8,0,,0,,,1,,,,,,,,,images/1 (2202).jpg,A,A,,8,8,0,,lets,,,initial_study,0,0,0,0,16544,,0.29,546,image-keyboard-response,1,0,0,"studied only, not in trial",,,,884
lets,5wDfOx1t4WeKIa6T0m05,No,0,0,False,,,2,r,False,False,,,f,T_foil,3,,,,,1306,lets,1 (1723).jpg,0.0-12.0-10.0-0.5,1,True,True,0,False,False,False,False,True,True,False,8,8,False,10,0,,,1,,,,0,,,,,images/1 (1723).jpg,Fn+1,Fn,,0,0,0,,lets,,,initialTest_response,6,6,0,461,17086,,0.30,588,image-keyboard-response,0,1,0,"tested only, not in next trial",,,,884
lets,5wGXv326UcJYfgVSCvcC,No,,0,,,,2,r,,,,,,,3,,,,,1306,lets,,0.0-14.0-5.0-0.4,1,,,0,,,,,,,,10,,,,,,,,,5,,,,,,,4,,,4,,,,,lets,,48,digitPresentation,,,,,19307,,0.33,727,html-keyboard-response,,,,,,,,884
lets,5wNABOm9A1nLvQKhjgeO,No,,0,,,,2,r,,,,,,,3,,,,,1306,lets,,0.0-5.0-8.0-0.0,1,,,0,,,,,,,,,,,,,,,,,,,,,,,,Now judge if you have seen this pictures from the list you JUST studied before the digits,,,,,,,,lets,,,prompt,,,,,8384,,0.15,49,html-keyboard-response,,,,,,,,1394
lets,5xzAy9F0u7CD7SrEPD03,No,0,0,,,,2,r,False,,,,j,T_nontarget,3,,,,,1306,lets,1 (1728).jpg,0.0-19.0-1.0-0.47,1,True,,0,True,,True,False,,False,False,,4,0,4,0,,,,,,,0,,,,,images/1 (1728).jpg,,A,,,1,0,,lets,,,finalTest,,0,0,204,22516,,0.39,969,image-keyboard-response,,,,"studied only, not in trial",,,,884
lets,61nqlZKLQQV9aQ1yQMLd,No,0,0,,,,2,r,False,,False,,j,T_nontarget,3,,,,,1306,lets,1 (717).jpg,0.0-19.0-1.0-0.0,1,True,,0,True,,True,False,,False,True,,8,9,4,0,,,,,,,0,,,,,images/1 (717).jpg,,Cn,,,1,0,,lets,,,finalTest,,0,11,157,21946,,0.38,922,image-keyboard-response,,,,"studied only, in next trial",,,,884
lets,67LP5dZ3hNqNFLxLGMzc,No,0,0,,,,2,r,False,,False,,j,T_nontarget,3,,,,,1306,lets,1 (821).jpg,0.0-22.0-1.0-0.39,1,True,,0,True,,True,False,,False,True,,3,4,7,0,,,,,,,0,,,,,images/1 (821).jpg,,Cn,,,19,0,,lets,,,finalTest,,0,18,340,24136,,0.42,1105,image-keyboard-response,,,,"studied only, in next trial",,,,884
lets,6BSVakk8zTTvgTfemCK7,No,0,0,True,,,2,r,False,,False,,f,T_foil,3,,,,,1306,lets,1 (1690).jpg,0.0-14.0-10.0-0.9,1,False,False,0,False,False,True,False,True,False,False,10,9,0,,0,,,2,,,,0,,,,,images/1 (1690).jpg,Cn,Cn,,0,25,0,,lets,,,initialTest_response,10,0,0,0,19597,,0.34,744,image-keyboard-response,1,0,1,"studied only, in next trial, from last trial",,,,884
lets,6EkDTnrKgICzXU0ivdtn,No,0,0,,,,2,r,False,,,,f,F,3,,,,,1306,lets,1 (1806).jpg,0.0-20.0-1.0-0.18,1,True,,0,False,,False,False,,False,False,,0,0,5,3,,,1,,,,0,,,,,images/1 (1806).jpg,,FF,,,0,0,,lets,,,finalTest,,0,0,223,22736,,0.39,988,image-keyboard-response,,,,final Foil,,,,884
lets,6KDf8240RG3N5MKbvv74,No,0,0,,,,2,r,False,,,,j,T_target,3,,,,,1306,lets,1 (1503).jpg,0.0-18.0-1.0-0.14,1,True,,0,True,,True,False,,True,False,,8,0,3,0,,,,,,,0,,,,,images/1 (1503).jpg,,B,,,25,0,,lets,,,finalTest,,22,0,123,21553,,0.37,888,image-keyboard-response,,,,"current target, not in next trial",,,,884
lets,6M47I06cX1EjDcEu6fKT,No,0,0,True,,,2,r,False,,False,,f,T_foil,3,,,,,1306,lets,1 (2070).jpg,0.0-9.0-10.0-0.27,1,True,False,0,False,False,True,False,True,False,True,5,4,5,,0,,,2,,,,0,,,,,images/1 (2070).jpg,Cn,Cn,,0,21,0,,lets,,,initialTest_response,28,0,28,69,13909,,0.24,382,image-keyboard-response,1,0,1,"studied only, in next trial, from last trial",,,,884
lets,6Np2ja888gOaDiqRQTHD,No,0,0,,,,2,r,False,,,,f,F,3,,,,,1306,lets,1 (1535).jpg,0.0-17.0-1.0-0.21,1,True,,0,False,,False,False,,False,False,,0,0,2,3,,,1,,,,0,,,,,images/1 (1535).jpg,,FF,,,0,0,,lets,,,finalTest,,0,0,82,21067,,0.36,847,image-keyboard-response,,,,final Foil,,,,884
lets,6VaNmnq706NJBMc5r25o,No,0,0,,,,2,r,False,,False,,j,T_nontarget,3,,,,,1306,lets,1 (1566).jpg,0.0-19.0-1.0-0.13,1,True,,0,True,,True,False,,False,True,,7,8,4,0,,,,,,,0,,,,,images/1 (1566).jpg,,Cn,,,5,0,,lets,,,finalTest,,0,14,170,22096,,0.38,935,image-keyboard-response,,,,"studied only, in next trial",,,,884
lets,6W2aTAtstJPJQTKyrEB6,No,0,0,False,,,2,r,False,False,,,f,T_foil,3,,,,,1306,lets,1 (2155).jpg,0.0-13.0-10.0-0.4,1,False,True,0,False,False,False,False,True,True,False,9,9,False,,0,,,1,,,,0,,,,,images/1 (2155).jpg,Fn+1,Fn,,0,0,0,,lets,,,initialTest_response,5,5,0,0,18290,,0.32,663,image-keyboard-response,0,1,0,"tested only, not in next trial",,,,884
lets,6aT80y17FY4dFGm9ahVN,No,0,0,,,,2,r,False,,,,f,F,3,,,,,1306,lets,1 (860).jpg,0.0-16.0-1.0-0.13,1,True,,0,False,,False,False,,False,False,,0,0,1,4,,,1,,,,0,,,,,images/1 (860).jpg,,FF,,,0,0,,lets,,,finalTest,,0,0,14,20236,,0.35,779,image-keyboard-response,,,,final Foil,,,,884
lets,6idsbcDwsHJL3RgPBPkN,No,0,0,,,,2,r,False,False,False,,j,T_target,3,,,,,1306,lets,1 (2121).jpg,0.0-19.0-1.0-0.32,1,True,,0,True,,True,False,,True,True,,8,9,4,0,,,,,,,0,,,,,images/1 (2121).jpg,,Dn,,,11,0,,lets,,,finalTest,,17,22,189,22331,,0.39,954,image-keyboard-response,,,,"current target, in next trial",,,,884
lets,6j8P41SBs2vd3YfqWhIK,No,0,0,,,,2,r,False,,,,f,F,3,,,,,1306,lets,1 (1372).jpg,0.0-17.0-1.0-0.47,1,True,,0,False,,False,False,,False,False,,0,0,2,5,,,1,,,,0,,,,,images/1 (1372).jpg,,FF,,,0,0,,lets,,,finalTest,,0,0,108,21378,,0.37,873,image-keyboard-response,,,,final Foil,,,,884
lets,6lLIIvQEVVS6P4ARQDsb,No,0,0,,,,2,r,False,,,,f,F,3,,,,,1306,lets,1 (1102).jpg,0.0-17.0-1.0-0.20,1,True,,0,False,,False,False,,False,False,,0,0,2,5,,,1,,,,0,,,,,images/1 (1102).jpg,,FF,,,0,0,,lets,,,finalTest,,0,0,81,21055,,0.36,846,image-keyboard-response,,,,final Foil,,,,884
lets,6pPJasgBeKyFus47UxxI,No,,0,False,,,2,r,,,,,,T_nontarget,3,,,,,1306,lets,1 (1972).jpg,0.0-7.0-2.0-0.28,1,True,True,0,,True,True,False,False,False,False,3,3,0,6,0,,,1,,,,,,,,,images/1 (1972).jpg,A,A,,29,29,0,,lets,,,initial_study,0,0,0,271,10681,,0.19,187,image-keyboard-response,1,0,0,"studied only, not in trial",,,,884
lets,6siNXENekVoMhAxoJZkJ,No,0,0,True,,,2,r,False,False,False,,j,T_target,3,,,,,1306,lets,1 (1656).jpg,0.0-9.0-10.0-0.19,1,False,True,0,False,True,True,False,True,True,True,5,5,6,,0,,,1,,,,0,,,,,images/1 (1656).jpg,Dn+1,Dn,,25,25,0,,lets,,,initialTest_response,20,20,17,0,13714,,0.24,374,image-keyboard-response,1,1,1,"current target, in next trial",,,,884
lets,6uswW11nKFLcOjfLA7Ln,No,0,0,,,,2,r,False,,,,j,T_nontarget,3,,,,,1306,lets,1 (772).jpg,0.0-21.0-1.0-0.38,1,True,,0,True,,True,False,,False,False,,4,0,6,0,,,,,,,0,,,,,images/1 (772).jpg,,A,,,6,0,,lets,,,finalTest,,0,0,291,23543,,0.41,1056,image-keyboard-response,,,,"studied only, not in trial",,,,884
lets,6vMk9vDoLTOBFXXa10aZ,No,0,0,False,,,2,r,False,False,,,j,T_target,3,,,,,1306,lets,1 (1087).jpg,0.0-13.0-10.0-0.18,1,True,True,0,False,True,True,False,True,True,False,9,9,False,,0,,,1,,,,0,,,,,images/1 (1087).jpg,B,B,,18,18,0,,lets,,,initialTest_response,19,19,0,122,18598,,0.32,677,image-keyboard-response,1,1,0,"current target, not in next trial",,,,884
lets,70ZK95x6uKnlWTxzUys2,No,0,0,True,,,2,r,False,False,False,,f,T_foil,3,,,,,1306,lets,1 (1290).jpg,0.0-6.0-10.0-0.6,1,False,False,0,False,False,True,False,True,True,True,2,1,2,,0,,,2,,,,0,,,,,images/1 (1290).jpg,Dn,Dn,,0,30,0,,lets,,,initialTest_response,7,30,7,0,9785,,0.18,133,image-keyboard-response,1,1,1,"current target, in next trial, from last trial",,,,884
lets,70ond1ApaziIdknpYlDo,No,,0,False,,,2,r,,,,,,T_nontarget,3,,,,,1306,lets,1 (621).jpg,0.0-10.0-2.0-0.14,1,True,True,0,,True,True,False,False,False,False,6,6,0,6,0,,,1,,,,,,,,,images/1 (621).jpg,A,A,,15,15,0,,lets,,,initial_study,0,0,0,274,14165,,0.25,401,image-keyboard-response,1,0,0,"studied only, not in trial",,,,884
lets,74I27MTkspe5vrCxeycc,No,0,0,,,,2,r,False,,,,f,F,3,,,,,1306,lets,1 (214).jpg,0.0-18.0-1.0-0.5,1,True,,0,False,,False,False,,False,False,,0,0,3,4,,,1,,,,0,,,,,images/1 (214).jpg,,FF,,,0,0,,lets,,,finalTest,,0,0,114,21447,,0.37,879,image-keyboard-response,,,,final Foil,,,,884
lets,75F2k7lbrFExTPWMe4Vg,No,,0,False,,,2,r,,,,,,T_target,3,,,,,1306,lets,1 (2407).jpg,0.0-10.0-2.0-0.15,1,True,True,0,,True,True,False,True,True,False,6,6,0,10,0,,,1,,,,,,,,,images/1 (2407).jpg,B,B,,16,16,0,,lets,,,initial_study,28,28,0,473,14177,,0.25,402,image-keyboard-response,1,1,0,"current target, not in next trial",,,,884
lets,779OJhVdDd6iEAbAGjUS,No,,0,False,,,2,r,,,,,,T_target,3,,,,,1306,lets,1 (304).jpg,0.0-9.0-2.0-0.10,1,False,True,0,,True,True,False,True,True,False,5,5,0,,0,,,1,,,,,,,,,images/1 (304).jpg,B,B,,11,11,0,,lets,,,initial_study,8,8,0,0,12868,,0.23,321,image-keyboard-response,1,1,0,"current target, not in next trial",,,,884
lets,7BuoWATRO3L7ErmkUwcq,No,0,0,True,,,2,r,False,False,False,,f,T_foil,3,,,,,1306,lets,1 (909).jpg,0.0-9.0-10.0-0.9,1,False,False,0,False,False,False,False,True,False,True,5,4,5,,0,,,2,,,,0,,,,,images/1 (909).jpg,Fnn,Fnn,,0,0,0,,lets,,,initialTest_response,10,0,10,0,13482,,0.24,364,image-keyboard-response,0,1,1,"tested only, in next trial, from last trial",,,,884
lets,7EypedNn5OFE5FN2J9FU,No,,0,,,,2,r,,,,,,,3,,,,,1306,lets,,0.0-11.0-5.0-0.7,1,,,0,,,,,,,,7,,,,,,,,,8,,,,,,,9,,,9,,,,,lets,,56,digitPresentation,,,,,15699,,0.27,502,html-keyboard-response,,,,,,,,884
lets,7JGPFdmCY9K3ptRcYVb4,No,,0,False,,,2,r,,,,,,T_nontarget,3,,,,,1306,lets,1 (1030).jpg,0.0-12.0-2.0-0.2,1,False,True,0,,True,True,False,False,False,False,8,8,0,,0,,,1,,,,,,,,,images/1 (1030).jpg,A,A,,3,3,0,,lets,,,initial_study,0,0,0,0,16488,,0.29,541,image-keyboard-response,1,0,0,"studied only, not in trial",,,,884
lets,7Lo8oOSBdgpiCil2Wa08,No,,0,,,,2,r,,,,,,,3,,,,,1306,lets,,0.0-12.0-5.0-0.1,1,,,0,,,,,,,,8,,,,,,,,,2,,,,,,,6,,,6,,,,,lets,,50,digitPresentation,,,,,16857,,0.29,572,html-keyboard-response,,,,,,,,884
lets,7PTpUBWPsbwss2bymhJB,No,0,0,True,,,2,r,False,False,False,,f,T_foil,3,,,,,1306,lets,1 (2197).jpg,0.0-8.0-10.0-0.19,1,False,False,0,False,False,False,False,True,False,True,4,3,4,,0,,,2,,,,0,,,,,images/1 (2197).jpg,Fnn,Fnn,,0,0,0,,lets,,,initialTest_response,20,0,20,0,12468,,0.22,298,image-keyboard-response,0,1,1,"tested only, in next trial, from last trial",,,,884
lets,7TOWZPXx7wVVWbcRcylW,No,,0,False,,,2,r,,,,,,T_nontarget,3,,,,,1306,lets,1 (1425).jpg,0.0-10.0-2.0-0.10,1,False,True,0,,True,True,False,False,False,False,6,6,0,,0,,,1,,,,,,,,,images/1 (1425).jpg,A,A,,11,11,0,,lets,,,initial_study,0,0,0,0,14112,,0.25,397,image-keyboard-response,1,0,0,"studied only, not in trial",,,,884
lets,7VHgm8mx3AtQ5olPiTfu,No,,0,False,,,2,r,,,,,,T_nontarget,3,,,,,1306,lets,1 (2016).jpg,0.0-14.0-2.0-0.3,1,True,True,0,,True,True,False,False,False,False,10,10,0,6,0,,,1,,,,,,,,,images/1 (2016).jpg,A,A,,4,4,0,,lets,,,initial_study,0,0,0,262,18932,,0.33,694,image-keyboard-response,1,0,0,"studied only, not in trial",,,,884
lets,7Wzr0xOERVk4uQj2Q52e,No,,0,,,,2,r,,,,,,,3,,,,,1306,lets,,0.0-30.0,1,,,0,,,,,,,,,,,,,,,,,,,,enter,,1375,,<p color:black>YOU FINISHED!<p><p color: black>Your overall accumulated accuracy is: <strong>0%</strong><p> <p color:black>You will get a completion code if you hit 'enter'.<p>,,,,,,,,lets,,,instruction,,,,,320835,,5.36,1261,html-keyboard-response,,,,,,,,884
lets,7YB6JgUbBi4lOkQzS0IJ,No,0,0,False,,,2,r,False,False,,,j,T_target,3,,,,,1306,lets,1 (1343).jpg,0.0-8.0-10.0-0.4,1,False,True,0,False,True,True,False,True,True,False,4,4,False,,0,,,1,,,,0,,,,,images/1 (1343).jpg,B,B,,24,24,0,,lets,,,initialTest_response,5,5,0,0,12135,,0.22,283,image-keyboard-response,1,1,0,"current target, not in next trial",,,,884
lets,7auAJszW1hZeR9202ImP,No,0,0,True,,,2,r,False,False,False,,f,T_foil,3,,,,,1306,lets,1 (1783).jpg,0.0-6.0-10.0-0.14,1,True,False,0,False,False,True,False,True,True,True,2,1,2,,0,,,2,,,,0,,,,,images/1 (1783).jpg,Dn,Dn,,0,5,0,,lets,,,initialTest_response,15,5,15,465,9961,,0.18,141,image-keyboard-response,1,1,1,"current target, in next trial, from last trial",,,,884
lets,7azorm6BnDBdgXHduoiY,No,,0,False,,,2,r,,,,,,T_target,3,,,,,1306,lets,1 (837).jpg,0.0-9.0-2.0-0.23,1,True,True,0,,True,True,False,True,True,False,5,5,0,3,0,,,1,,,,,,,,,images/1 (837).jpg,B,B,,24,24,0,,lets,,,initial_study,22,22,0,128,13027,,0.23,334,image-keyboard-response,1,1,0,"current target, not in next trial",,,,884
lets,7eyGUElB0s6uVZ8cBhZO,No,0,0,,,,2,r,False,,,,f,F,3,,,,,1306,lets,1 (1063).jpg,0.0-17.0-1.0-0.7,1,True,,0,False,,False,False,,False,False,,0,0,2,5,,,1,,,,0,,,,,images/1 (1063).jpg,,FF,,,0,0,,lets,,,finalTest,,0,0,68,20899,,0.36,833,image-keyboard-response,,,,final Foil,,,,884
lets,7jXnxOp5q5QoolepLi1G,No,0,0,,,,2,r,False,,,,f,F,3,,,,,1306,lets,1 (518).jpg,0.0-21.0-1.0-0.37,1,True,,0,False,,False,False,,False,False,,0,0,6,8,,,1,,,,0,,,,,images/1 (518).jpg,,FF,,,0,0,,lets,,,finalTest,,0,0,290,23530,,0.41,1055,image-keyboard-response,,,,final Foil,,,,884
lets,7or0pA0uuQjwDNcKw9aY,No,0,0,,,,2,r,False,False,False,,j,T_foil,3,,,,,1306,lets,1 (379).jpg,0.0-24.0-1.0-0.28,1,True,,0,True,,False,False,,True,False,,9,0,9,9,,,,,,,0,,,,,images/1 (379).jpg,,Fnn,,,0,0,,lets,,,finalTest,,16,0,425,25165,,0.43,1190,image-keyboard-response,,,,"tested only, in next trial",,,,884
lets,7p9zW5cMXFqXU08VkOiE,No,0,0,,,,2,r,False,,,,j,T_target,3,,,,,1306,lets,1 (1327).jpg,0.0-18.0-1.0-0.47,1,True,,0,True,,True,False,,True,False,,9,0,3,0,,,,,,,0,,,,,images/1 (1327).jpg,,B,,,8,0,,lets,,,finalTest,,30,0,156,21934,,0.38,921,image-keyboard-response,,,,"current target, not in next trial",,,,884
lets,7qKZi5CHnJHuBNoEc4Cc,No,0,0,,,,2,r,False,,,,f,F,3,,,,,1306,lets,1 (1146).jpg,0.0-25.0-1.0-0.15,1,True,,0,False,,False,False,,False,False,,0,0,10,0,,,1,,,,0,,,,,images/1 (1146).jpg,,FF,,,0,0,,lets,,,finalTest,,0,0,460,25581,,0.44,1225,image-keyboard-response,,,,final Foil,,,,884
lets,7vqBU3hGEA6CZ62ExgLY,No,,0,False,,,2,r,,,,,,T_target,3,,,,,1306,lets,1 (653).jpg,0.0-14.0-2.0-0.6,1,False,True,0,,True,True,False,True,True,False,10,10,0,,0,,,1,,,,,,,,,images/1 (653).jpg,B,B,,7,7,0,,lets,,,initial_study,11,11,0,0,18965,,0.33,697,image-keyboard-response,1,1,0,"current target, not in next trial",,,,884
lets,80HeoXud9I0IMwe2v7Dr,No,0,0,,,,2,r,False,,,,j,T_nontarget,3,,,,,1306,lets,1 (1632).jpg,0.0-20.0-1.0-0.8,1,True,,0,True,,True,False,,False,False,,10,0,5,0,,,,,,,0,,,,,images/1 (1632).jpg,,A,,,21,0,,lets,,,finalTest,,0,0,213,22622,,0.39,978,image-keyboard-response,,,,"studied only, not in trial",,,,884
lets,810kS7ItiDjFi81PMMkZ,No,,0,False,,,2,r,,,,,,T_target,3,,,,,1306,lets,1 (242).jpg,0.0-8.0-2.0-0.19,1,True,True,0,,True,True,False,True,True,False,4,4,0,9,0,,,1,,,,,,,,,images/1 (242).jpg,B,B,,20,20,0,,lets,,,initial_study,9,9,0,418,11759,,0.21,254,image-keyboard-response,1,1,0,"current target, not in next trial",,,,884
lets,81mQLybUUoAZTzzUa85Q,No,,0,,,,2,r,,,,,,,3,,,,,1306,lets,,0.0-8.0-5.0-0.0,1,,,0,,,,,,,,4,,,,,,,,,1,,,,,,,4,,,4,,,,,lets,,56,digitPresentation,,,,,11903,,0.21,267,html-keyboard-response,,,,,,,,884
lets,899pdt0ggG5siONXNuds,No,0,0,,,,2,r,False,,,,j,T_target,3,,,,,1306,lets,1 (679).jpg,0.0-19.0-1.0-0.24,1,True,,0,True,,True,False,,True,False,,9,0,4,0,,,,,,,0,,,,,images/1 (679).jpg,,B,,,6,0,,lets,,,finalTest,,25,0,181,22229,,0.38,946,image-keyboard-response,,,,"current target, not in next trial",,,,884
lets,8EgafwJUU0HKrT1b5eKR,No,0,0,,,,2,r,False,,,,f,F,3,,,,,1306,lets,1 (1886).jpg,0.0-25.0-1.0-0.3,1,True,,0,False,,False,False,,False,False,,0,0,10,6,,,1,,,,0,,,,,images/1 (1886).jpg,,FF,,,0,0,,lets,,,finalTest,,0,0,448,25435,,0.44,1213,image-keyboard-response,,,,final Foil,,,,884
lets,8HKxcqIogdGgUucZPSxa,No,,0,,,,2,r,,,,,,,3,,,,,1306,lets,,0.0-6.0-1.0-0.0,1,,,0,,,,,,,,,,,,,,,,,,,,,,,,"<div style=""font-size:60px;"">+</div>",,,,,,,,lets,,,fixation,,,,,9155,,0.17,82,html-keyboard-response,,,,,,,,884
lets,8JpheVK1ilz61zAOIfWA,No,0,0,,,,2,r,False,,,,f,F,3,,,,,1306,lets,1 (2263).jpg,0.0-20.0-1.0-0.46,1,True,,0,False,,False,False,,False,False,,0,0,5,0,,,1,,,,0,,,,,images/1 (2263).jpg,,FF,,,0,0,,lets,,,finalTest,,0,0,251,23065,,0.40,1016,image-keyboard-response,,,,final Foil,,,,884
lets,8NRG98RCNc0kCpzqbICt,No,0,0,,,,2,r,False,,,,f,F,3,,,,,1306,lets,1 (931).jpg,0.0-18.0-1.0-0.31,1,True,,0,False,,False,False,,False,False,,0,0,3,5,,,1,,,,0,,,,,images/1 (931).jpg,,FF,,,0,0,,lets,,,finalTest,,0,0,140,21745,,0.38,905,image-keyboard-response,,,,final Foil,,,,884
lets,8PvUva0VQxh4NO01Th6N,No,,0,False,,,2,r,,,,,,T_target,3,,,,,1306,lets,1 (1343).jpg,0.0-8.0-2.0-0.23,1,False,True,0,,True,True,False,True,True,False,4,4,0,,0,,,1,,,,,,,,,images/1 (1343).jpg,B,B,,24,24,0,,lets,,,initial_study,5,5,0,0,11803,,0.21,258,image-keyboard-response,1,1,0,"current target, not in next trial",,,,884
lets,8WlXPV3G4jQZMGJFYV7n,No,,0,False,,,2,r,,,,,,T_nontarget,3,,,,,1306,lets,1 (558).jpg,0.0-13.0-2.0-0.19,1,True,True,0,,True,True,False,False,False,False,9,9,0,3,0,,,1,,,,,,,,,images/1 (558).jpg,A,A,,20,20,0,,lets,,,initial_study,0,0,0,154,17900,,0.31,634,image-keyboard-response,1,0,0,"studied only, not in trial",,,,884
lets,8cJowkGwHksEcnt5LMDK,No,,0,,,,2,r,False,,,48,,,3,,,,,1306,lets,,0.0-14.0-6.0-0.0-0.0,1,,,0,,,,,,,,,,,,,,,,,,,,"{'answer': 'Skipped after 0.01 seconds', 'question': ""Please enter the sum using your number keyboard <p>Press 'enter' to continue.</p>""}",Please enter the sum using your number keyboard <p>Press 'enter' to continue.</p>,,,,,,,,,,,lets,,,answer_counting,,,,,19352,,0.34,731,survey-text,,,,,,,,884
lets,8w7ac6nepU6Lt99c5M7T,No,0,0,True,,,2,r,False,False,False,,f,T_foil,3,,,,,1306,lets,1 (1157).jpg,0.0-9.0-10.0-0.20,1,False,False,0,False,False,True,False,True,True,True,5,4,5,,0,,,2,,,,0,,,,,images/1 (1157).jpg,Dn,Dn,,0,12,0,,lets,,,initialTest_response,21,12,21,0,13736,,0.24,375,image-keyboard-response,1,1,1,"current target, in next trial, from last trial",,,,884
lets,8zRy8VIur7Vtd8cx6nOx,No,0,0,,,,2,r,False,,,,f,F,3,,,,,1306,lets,1 (1805).jpg,0.0-24.0-1.0-0.37,1,True,,0,False,,False,False,,False,False,,0,0,9,5,,,1,,,,0,,,,,images/1 (1805).jpg,,FF,,,0,0,,lets,,,finalTest,,0,0,434,25268,,0.43,1199,image-keyboard-response,,,,final Foil,,,,884
lets,8ztUzbcbzqSZBGCCiSF2,No,0,0,,,,2,r,False,False,,,j,T_foil,3,,,,,1306,lets,1 (745).jpg,0.0-19.0-1.0-0.28,1,True,,0,True,,False,False,,True,False,,10,0,4,10,,,,,,,0,,,,,images/1 (745).jpg,,Fnn,,,0,0,,lets,,,finalTest,,8,0,185,22276,,0.38,950,image-keyboard-response,,,,"tested only, in next trial",,,,884
lets,93j00WgHyWdGAnhkpM4V,No,0,0,False,,,2,r,False,False,,,j,T_target,3,,,,,1306,lets,1 (1824).jpg,0.0-6.0-10.0-0.18,1,True,True,0,False,True,True,False,True,True,False,2,2,False,,0,,,1,,,,0,,,,,images/1 (1824).jpg,B,B,,30,30,0,,lets,,,initialTest_response,19,19,0,172,10062,,0.18,145,image-keyboard-response,1,1,0,"current target, not in next trial",,,,884
lets,93l0MYm2805DtJ4r5CCt,No,0,0,,,,2,r,False,,,,f,F,3,,,,,1306,lets,1 (64).jpg,0.0-23.0-1.0-0.17,1,True,,0,False,,False,False,,False,False,,0,0,8,0,,,1,,,,0,,,,,images/1 (64).jpg,,FF,,,0,0,,lets,,,finalTest,,0,0,366,24444,,0.42,1131,image-keyboard-response,,,,final Foil,,,,884
lets,95xuGKUa2fVkzFq4i0F9,No,0,0,False,,,2,r,False,False,,,j,T_target,3,,,,,1306,lets,1 (473).jpg,0.0-5.0-10.0-0.14,1,True,True,0,False,True,True,False,True,True,False,1,1,False,,0,,,1,,,,0,,,,,images/1 (473).jpg,B,B,,25,25,0,,lets,,,initialTest_response,15,15,0,152,8791,,0.16,65,image-keyboard-response,1,1,0,"current target, not in next trial",,,,1394
lets,96ISWrsiwu36vClJV76d,No,0,0,,,,2,r,False,,,,j,T_nontarget,3,,,,,1306,lets,1 (2315).jpg,0.0-17.0-1.0-0.17,1,True,,0,True,,True,False,,False,False,,8,0,2,0,,,,,,,0,,,,,images/1 (2315).jpg,,A,,,13,0,,lets,,,finalTest,,0,0,78,21020,,0.36,843,image-keyboard-response,,,,"studied only, not in trial",,,,884
lets,9906UjQktqIf9gMyqJ85,No,,0,True,,,2,r,,,,,,T_target,3,,,,,1306,lets,1 (1602).jpg,0.0-13.0-2.0-0.29,1,True,True,0,,True,True,False,True,True,True,9,9,10,8,0,,,1,,,,,,,,,images/1 (1602).jpg,Dn+1,Dn,,30,30,0,,lets,,,initial_study,7,7,13,350,18023,,0.31,644,image-keyboard-response,1,1,1,"current target, in next trial",,,,884
lets,9CuPAqev6mqL9enM1DwL,No,,0,,,,2,r,,,,,,,3,,,,,1306,lets,,0.0-8.0-5.0-0.1,1,,,0,,,,,,,,4,,,,,,,,,2,,,,,,,8,,,8,,,,,lets,,56,digitPresentation,,,,,11914,,0.21,268,html-keyboard-response,,,,,,,,884
lets,9ImoZYC2b2PDQShsIVjv,No,,0,False,,,2,r,,,,,,T_nontarget,3,,,,,1306,lets,1 (1445).jpg,0.0-13.0-2.0-0.22,1,True,True,0,,True,True,False,False,False,False,9,9,0,3,0,,,1,,,,,,,,,images/1 (1445).jpg,A,A,,23,23,0,,lets,,,initial_study,0,0,0,151,17944,,0.31,637,image-keyboard-response,1,0,0,"studied only, not in trial",,,,884
lets,9SXGmlv8k9FB3q9MhNK0,No,,0,,,,2,r,,,,,,,3,,,,,1306,lets,,0.0-8.0-8.0-0.0,1,,,0,,,,,,,,,,,,,,,,,,,,,,,,Now judge if you have seen this pictures from the list you JUST studied before the digits,,,,,,,,lets,,,prompt,,,,,12021,,0.21,277,html-keyboard-response,,,,,,,,884
lets,9UpMxOaXB4qY7wsYtBXY,No,0,0,,,,2,r,False,,,,f,F,3,,,,,1306,lets,1 (1277).jpg,0.0-16.0-1.0-0.3,1,True,,0,False,,False,False,,False,False,,0,0,1,0,,,1,,,,0,,,,,images/1 (1277).jpg,,FF,,,0,0,,lets,,,finalTest,,0,0,4,20116,,0.35,769,image-keyboard-response,,,,final Foil,,,,884
lets,9WzcbDgjXYDrvHHtGEXM,No,0,0,False,,,2,r,False,False,,,j,T_target,3,,,,,1306,lets,1 (155).jpg,0.0-13.0-10.0-0.17,1,True,True,0,False,True,True,False,True,True,False,9,9,False,,0,,,1,,,,0,,,,,images/1 (155).jpg,B,B,,2,2,0,,lets,,,initialTest_response,18,18,0,438,18576,,0.32,676,image-keyboard-response,1,1,0,"current target, not in next trial",,,,884
lets,9bJ3gePTKWpN4KT9oQnh,No,0,0,False,,,2,r,False,False,,,f,T_foil,3,,,,,1306,lets,1 (1332).jpg,0.0-12.0-10.0-0.9,1,False,True,0,False,False,False,False,True,True,False,8,8,False,,0,,,1,,,,0,,,,,images/1 (1332).jpg,Fn+1,Fn,,0,0,0,,lets,,,initialTest_response,10,10,0,0,17173,,0.30,592,image-keyboard-response,0,1,0,"tested only, not in next trial",,,,884
lets,9bl0oOwCeFEDdKOGnMSg,No,0,0,,,,2,r,False,,,,f,F,3,,,,,1306,lets,1 (1066).jpg,0.0-21.0-1.0-0.6,1,True,,0,False,,False,False,,False,False,,0,0,6,8,,,1,,,,0,,,,,images/1 (1066).jpg,,FF,,,0,0,,lets,,,finalTest,,0,0,259,23153,,0.40,1024,image-keyboard-response,,,,final Foil,,,,884
lets,9htu8uUkGKJypLbxM0RC,No,,0,True,,,2,r,,,,,,T_nontarget,3,,,,,1306,lets,1 (720).jpg,0.0-9.0-2.0-0.16,1,False,True,0,,True,True,False,False,False,True,5,5,6,,0,,,1,,,,,,,,,images/1 (720).jpg,Cn+1,Cn,,17,17,0,,lets,,,initial_study,0,0,15,0,12946,,0.23,327,image-keyboard-response,1,0,1,"studied only, in next trial",,,,884
lets,9irTQI5eDUDpIHVt3MM1,No,,0,False,,,2,r,,,,,,T_target,3,,,,,1306,lets,1 (1636).jpg,0.0-9.0-2.0-0.4,1,True,True,0,,True,True,False,True,True,False,5,5,0,8,0,,,1,,,,,,,,,images/1 (1636).jpg,B,B,,5,5,0,,lets,,,initial_study,15,15,0,353,12800,,0.23,315,image-keyboard-response,1,1,0,"current target, not in next trial",,,,884
lets,9kAx2xM9T8aP4zQagksu,No,,0,False,,,2,r,,,,,,T_target,3,,,,,1306,lets,1 (1860).jpg,0.0-9.0-2.0-0.1,1,True,True,0,,True,True,False,True,True,False,5,5,0,1,0,,,1,,,,,,,,,images/1 (1860).jpg,B,B,,2,2,0,,lets,,,initial_study,2,2,0,50,12765,,0.23,312,image-keyboard-response,1,1,0,"current target, not in next trial",,,,884
lets,9leTY4yewrHAzo9DhEVa,No,0,0,True,,,2,r,False,False,False,,f,T_foil,3,,,,,1306,lets,1 (437).jpg,0.0-11.0-10.0-0.29,1,True,False,0,False,False,True,False,True,True,True,7,6,7,,0,,,2,,,,0,,,,,images/1 (437).jpg,Dn,Dn,,0,29,0,,lets,,,initialTest_response,30,29,30,292,16421,,0.29,536,image-keyboard-response,1,1,1,"current target, in next trial, from last trial",,,,884
lets,9sSWxIz4Gjs8cSRT4Mag,No,,0,False,,,2,r,,,,,,T_target,3,,,,,1306,lets,1 (148).jpg,0.0-13.0-2.0-0.28,1,False,True,0,,True,True,False,True,True,False,9,9,0,,0,,,1,,,,,,,,,images/1 (148).jpg,B,B,,29,29,0,,lets,,,initial_study,20,20,0,0,18011,,0.31,643,image-keyboard-response,1,1,0,"current target, not in next trial",,,,884
lets,9xAfzFG2zo1HYLcMTbja,No,,0,,,,2,r,,,,,,,3,,,,,1306,lets,,0.0-12.0-5.0-0.2,1,,,0,,,,,,,,8,,,,,,,,,3,,,,,,,4,,,4,,,,,lets,,50,digitPresentation,,,,,16868,,0.29,573,html-keyboard-response,,,,,,,,884
lets,A5MpP9FhNJWES5AoLxoB,No,,0,,,,2,r,,,,,,,3,,,,,1306,lets,,0.0-11.0-1.0-0.0,1,,,0,,,,,,,,,,,,,,,,,,,,,,,,"<div style=""font-size:60px;"">+</div>",,,,,,,,lets,,,fixation,,,,,15199,,0.27,462,html-keyboard-response,,,,,,,,884
lets,A7IooR8m5a7T4w9Z5jr0,No,0,0,False,,,2,r,False,False,,,f,T_foil,3,,,,,1306,lets,1 (896).jpg,0.0-13.0-10.0-0.11,1,True,True,0,False,False,False,False,True,True,False,9,9,False,1,0,,,1,,,,0,,,,,images/1 (896).jpg,Fn+1,Fn,,0,0,0,,lets,,,initialTest_response,12,12,0,18,18443,,0.32,670,image-keyboard-response,0,1,0,"tested only, not in next trial",,,,884
lets,AAKReG3mUnLL9x16eJIb,No,0,0,False,,,2,r,False,False,,,j,T_target,3,,,,,1306,lets,1 (704).jpg,0.0-11.0-10.0-0.18,1,True,True,0,False,True,True,False,True,True,False,7,7,False,,0,,,1,,,,0,,,,,images/1 (704).jpg,B,B,,24,24,0,,lets,,,initialTest_response,19,19,0,269,16172,,0.28,525,image-keyboard-response,1,1,0,"current target, not in next trial",,,,884
lets,ACr17QQMUNNuv2mgZnCG,No,0,0,,,,2,r,False,False,False,,j,T_target,3,,,,,1306,lets,1 (1712).jpg,0.0-25.0-1.0-0.25,1,True,,0,True,,True,False,,True,True,,4,5,10,0,,,,,,,0,,,,,images/1 (1712).jpg,,Dn,,,10,0,,lets,,,finalTest,,3,5,470,25707,,0.44,1235,image-keyboard-response,,,,"current target, in next trial",,,,884
lets,AHzf9lF1orWm1pLquVFN,No,0,0,False,,,2,r,False,False,,,f,T_foil,3,,,,,1306,lets,1 (311).jpg,0.0-7.0-10.0-0.12,1,True,True,0,False,False,False,False,True,True,False,3,3,False,4,0,,,1,,,,0,,,,,images/1 (311).jpg,Fn+1,Fn,,0,0,0,,lets,,,initialTest_response,13,13,0,200,11125,,0.20,215,image-keyboard-response,0,1,0,"tested only, not in next trial",,,,884
lets,AL5iOjSLXmIIFLliWnYZ,No,,0,,,,2,r,,,,,,,3,,,,,1306,lets,,0.0-7.0-5.0-0.5,1,,,0,,,,,,,,3,,,,,,,,,6,,,,,,,6,,,6,,,,,lets,,52,digitPresentation,,,,,10778,,0.19,196,html-keyboard-response,,,,,,,,884
lets,AN12Hc7LSl3nUOjlICnW,No,0,0,False,,,2,r,False,False,,,j,T_target,3,,,,,1306,lets,1 (1593).jpg,0.0-12.0-10.0-0.2,1,True,True,0,False,True,True,False,True,True,False,8,8,False,,0,,,1,,,,0,,,,,images/1 (1593).jpg,B,B,,18,18,0,,lets,,,initialTest_response,3,3,0,395,17020,,0.30,585,image-keyboard-response,1,1,0,"current target, not in next trial",,,,884
lets,APVlfWcIXQ3No3pPNl2C,No,0,0,True,,,2,r,False,False,False,,f,T_foil,3,,,,,1306,lets,1 (648).jpg,0.0-7.0-10.0-0.5,1,True,True,0,False,False,False,False,True,True,True,3,3,4,6,0,,,1,,,,0,,,,,images/1 (648).jpg,Fnn+1,Fnn,,0,0,0,,lets,,,initialTest_response,6,6,14,289,10965,,0.20,208,image-keyboard-response,0,1,1,"tested only, in next trial",,,,884
lets,AQ8MuT54qPL5L8sElu8g,No,0,0,,,,2,r,False,,,,f,F,3,,,,,1306,lets,1 (429).jpg,0.0-20.0-1.0-0.21,1,True,,0,False,,False,False,,False,False,,0,0,5,3,,,1,,,,0,,,,,images/1 (429).jpg,,FF,,,0,0,,lets,,,finalTest,,0,0,226,22770,,0.39,991,image-keyboard-response,,,,final Foil,,,,884
lets,AQRX21AeucErlsZ9p8ks,No,,0,False,,,2,r,,,,,,T_nontarget,3,,,,,1306,lets,1 (1116).jpg,0.0-5.0-2.0-0.21,1,True,True,0,,True,True,False,False,False,False,1,1,0,8,0,,,1,,,,,,,,,images/1 (1116).jpg,A,A,,22,22,0,,lets,,,initial_study,0,0,0,391,8034,,0.15,28,image-keyboard-response,1,0,0,"studied only, not in trial",,,,1394
lets,AUhk3ZetC3k7KvP64nol,No,0,0,,,,2,r,False,,,,f,F,3,,,,,1306,lets,1 (1446).jpg,0.0-18.0-1.0-0.16,1,True,,0,False,,False,False,,False,False,,0,0,3,8,,,1,,,,0,,,,,images/1 (1446).jpg,,FF,,,0,0,,lets,,,finalTest,,0,0,125,21576,,0.37,890,image-keyboard-response,,,,final Foil,,,,884
lets,AVBIwvwk2gu4xxibWfXp,No,,0,False,,,2,r,,,,,,T_target,3,,,,,1306,lets,1 (1695).jpg,0.0-9.0-2.0-0.2,1,True,True,0,,True,True,False,True,True,False,5,5,0,5,0,,,1,,,,,,,,,images/1 (1695).jpg,B,B,,3,3,0,,lets,,,initial_study,30,30,0,209,12777,,0.23,313,image-keyboard-response,1,1,0,"current target, not in next trial",,,,884
lets,AVYV6SgHVDg0AA6eAG6H,No,0,0,True,,,2,r,False,,False,,f,T_foil,3,,,,,1306,lets,1 (2144).jpg,0.0-9.0-10.0-0.12,1,False,False,0,False,False,True,False,True,False,True,5,4,5,,0,,,2,,,,0,,,,,images/1 (2144).jpg,Cn,Cn,,0,7,0,,lets,,,initialTest_response,13,0,13,0,13561,,0.24,367,image-keyboard-response,1,0,1,"studied only, in next trial, from last trial",,,,884
lets,AWOE5GrX1tZdHsJ4XQ9I,No,,0,True,,,2,r,,,,,,T_target,3,,,,,1306,lets,1 (6).JPG,0.0-7.0-2.0-0.21,1,False,True,0,,True,True,False,True,True,True,3,3,4,,0,,,1,,,,,,,,,images/1 (6).JPG,Dn+1,Dn,,22,22,0,,lets,,,initial_study,12,12,24,0,10588,,0.19,180,image-keyboard-response,1,1,1,"current target, in next trial",,,,884
lets,AX1lAa1IYpaGYuSMuZJE,No,,0,,,,2,r,,,,,,,3,,,,,1306,lets,,0.0-4.0,1,,,0,,,,,,,,,,,,,,,,,,,,,,537,,,,,,,,,,lets,True,,,,,,,7614,,0.14,4,fullscreen,,,,,,,,1394
lets,AbkXttqYIyhIv5XQe3Ug,No,0,0,,,,2,r,False,,,,j,T_foil,3,,,,,1306,lets,1 (1500).jpg,0.0-21.0-1.0-0.45,1,True,,0,True,,False,False,,True,False,,6,False,6,6,,,,,,,0,,,,,images/1 (1500).jpg,,Fn,,,0,0,,lets,,,finalTest,,19,0,298,23638,,0.41,1063,image-keyboard-response,,,,"tested only, not in next trial",,,,884
lets,Ac9mgRtWeTzSuklSl0qN,No,,0,False,,,2,r,,,,,,T_target,3,,,,,1306,lets,1 (1024).jpg,0.0-14.0-2.0-0.8,1,True,True,0,,True,True,False,True,True,False,10,10,0,3,0,,,1,,,,,,,,,images/1 (1024).jpg,B,B,,9,9,0,,lets,,,initial_study,17,17,0,141,18988,,0.33,699,image-keyboard-response,1,1,0,"current target, not in next trial",,,,884
lets,Adss1Gos0yJbMjoQNuAk,No,,0,,,,2,r,,,,,,,3,,,,,1306,lets,,0.0-10.0-3.0-0.0,1,,,0,,,,,,,,,,,,,,,,,,,,,,,,Summing up the digits as they appear,,,,,,,,lets,,,prompt,,,,,14360,,0.25,417,html-keyboard-response,,,,,,,,884
lets,AhMyNeTzmkxahlVHi6Hs,No,0,0,,,,2,r,False,,,,j,T_target,3,,,,,1306,lets,1 (2178).jpg,0.0-23.0-1.0-0.45,1,True,,0,True,,True,False,,True,False,,5,0,8,0,,,,,,,0,,,,,images/1 (2178).jpg,,B,,,16,0,,lets,,,finalTest,,3,0,394,24785,,0.43,1159,image-keyboard-response,,,,"current target, not in next trial",,,,884
lets,AjT4FawR0fzGoTAk1evF,No,0,0,False,,,2,r,False,False,,,j,T_target,3,,,,,1306,lets,1 (228).jpg,0.0-11.0-10.0-0.11,1,True,True,0,False,True,True,False,True,True,False,7,7,False,,0,,,1,,,,0,,,,,images/1 (228).jpg,B,B,,30,30,0,,lets,,,initialTest_response,12,12,0,355,16006,,0.28,518,image-keyboard-response,1,1,0,"current target, not in next trial",,,,884
lets,Aky35BwNYtFY2p30q76R,No,0,0,,,,2,r,False,,,,f,F,3,,,,,1306,lets,1 (983).jpg,0.0-18.0-1.0-0.30,1,True,,0,False,,False,False,,False,False,,0,0,3,0,,,1,,,,0,,,,,images/1 (983).jpg,,FF,,,0,0,,lets,,,finalTest,,0,0,139,21734,,0.38,904,image-keyboard-response,,,,final Foil,,,,884
lets,AlmK5PNuLFnQmaXQQOID,No,,0,True,,,2,r,,,,,,T_nontarget,3,,,,,1306,lets,1 (2144).jpg,0.0-8.0-2.0-0.6,1,False,True,0,,True,True,False,False,False,True,4,4,5,,0,,,1,,,,,,,,,images/1 (2144).jpg,Cn+1,Cn,,7,7,0,,lets,,,initial_study,0,0,13,0,11616,,0.21,241,image-keyboard-response,1,0,1,"studied only, in next trial",,,,884
lets,Aq7YUqjkXx9Fia5Q3yNw,No,0,0,True,,,2,r,False,False,False,,j,T_target,3,,,,,1306,lets,1 (428).jpg,0.0-7.0-10.0-0.2,1,True,True,0,False,True,True,False,True,True,True,3,3,4,,0,,,1,,,,0,,,,,images/1 (428).jpg,Dn+1,Dn,,24,24,0,,lets,,,initialTest_response,3,3,27,15,10900,,0.19,205,image-keyboard-response,1,1,1,"current target, in next trial",,,,884
lets,AuOFJOG764c2XQ3RrUHY,No,,0,,,,2,r,,,,,,,3,,,,,1306,lets,,0.0-9.0-5.0-0.1,1,,,0,,,,,,,,5,,,,,,,,,2,,,,,,,6,,,6,,,,,lets,,63,digitPresentation,,,,,13163,,0.23,344,html-keyboard-response,,,,,,,,884
lets,AyZkCtnB8HGnykc7FcgP,No,,0,,,,2,r,,,,,,,3,,,,,1306,lets,,0.0-12.0-8.0-0.0,1,,,0,,,,,,,,,,,,,,,,,,,,,,,,Now judge if you have seen this pictures from the list you JUST studied before the digits,,,,,,,,lets,,,prompt,,,,,16954,,0.30,581,html-keyboard-response,,,,,,,,884
lets,Azcm68zbMkmjXaqVT7Sc,No,0,0,,,,2,r,False,,,,f,F,3,,,,,1306,lets,1 (1415).jpg,0.0-21.0-1.0-0.43,1,True,,0,False,,False,False,,False,False,,0,0,6,4,,,1,,,,0,,,,,images/1 (1415).jpg,,FF,,,0,0,,lets,,,finalTest,,0,0,296,23606,,0.41,1061,image-keyboard-response,,,,final Foil,,,,884
lets,B276Pj5YzyxUa7HQbzK9,No,0,0,,,,2,r,False,,,,j,T_target,3,,,,,1306,lets,1 (619).jpg,0.0-20.0-1.0-0.15,1,True,,0,True,,True,False,,True,False,,3,0,5,0,,,,,,,0,,,,,images/1 (619).jpg,,B,,,23,0,,lets,,,finalTest,,9,0,220,22701,,0.39,985,image-keyboard-response,,,,"current target, not in next trial",,,,884
lets,B2nQKnj1KAlxJ2YjAD5k,No,0,0,,,,2,r,False,,,,f,F,3,,,,,1306,lets,1 (825).jpg,0.0-16.0-1.0-0.34,1,True,,0,False,,False,False,,False,False,,0,0,1,3,,,1,,,,0,,,,,images/1 (825).jpg,,FF,,,0,0,,lets,,,finalTest,,0,0,35,20501,,0.35,800,image-keyboard-response,,,,final Foil,,,,884
lets,B4tJHeXgmVkaURsSYAC6,No,,0,,,,2,r,,,,,,,3,,,,,1306,lets,,0.0-6.0-7.0-0.0,1,,,0,,,,,,,,,,,,,,,,,,,,,,,,<p background:white>INCORRECT!</p>,,,,,,,,lets,,,promptfeedback,,,,,9621,,0.17,124,html-keyboard-response,,,,,,,,884
lets,BB5jkSrN7aUkUHfO7VFf,No,0,0,,,,2,r,False,,,,j,T_target,3,,,,,1306,lets,1 (834).jpg,0.0-16.0-1.0-0.6,1,True,,0,True,,True,False,,True,False,,1,0,1,0,,,,,,,0,,,,,images/1 (834).jpg,,B,,,4,0,,lets,,,finalTest,,24,0,7,20154,,0.35,772,image-keyboard-response,,,,"current target, not in next trial",,,,884
lets,BDsxqEq1uSpbFsONzy0M,No,,0,,,,2,r,,,,,,,3,,,,,1306,lets,,0.0-6.0-5.0-0.0,1,,,0,,,,,,,,2,,,,,,,,,1,,,,,,,7,,,7,,,,,lets,,46,digitPresentation,,,,,9516,,0.17,115,html-keyboard-response,,,,,,,,884
lets,BFbmVtcggAYBAOcXvc9B,No,,0,False,,,2,r,,,,,,T_nontarget,3,,,,,1306,lets,1 (1682).jpg,0.0-13.0-2.0-0.3,1,True,True,0,,True,True,False,False,False,False,9,9,0,3,0,,,1,,,,,,,,,images/1 (1682).jpg,A,A,,4,4,0,,lets,,,initial_study,0,0,0,109,17719,,0.31,618,image-keyboard-response,1,0,0,"studied only, not in trial",,,,884
lets,BNFmAEJEJYJxkeVR9tRJ,No,,0,,,,2,r,,,,,,,3,,,,,1306,lets,,0.0-5.0-7.0-0.0,1,,,0,,,,,,,,,,,,,,,,,,,,,,,,<p background:white>INCORRECT!</p>,,,,,,,,lets,,,promptfeedback,,,,,8368,,0.15,48,html-keyboard-response,,,,,,,,1394
lets,BQJG1v5YQB4rdL1Lc7Sq,No,0,0,False,,,2,r,False,False,,,f,T_foil,3,,,,,1306,lets,1 (1204).jpg,0.0-14.0-10.0-0.5,1,False,True,0,False,False,False,False,True,True,False,10,10,0,,0,,,1,,,,0,,,,,images/1 (1204).jpg,Fn+1,Fn,,0,0,0,,lets,,,initialTest_response,6,6,0,0,19508,,0.34,740,image-keyboard-response,0,1,0,"tested only, not in next trial",,,,884
lets,BQvWk76PClkO3Qyjf6D0,No,,0,,,,2,r,False,,,56,,,3,,,,,1306,lets,,0.0-10.0-6.0-0.0-0.0,1,,,0,,,,,,,,,,,,,,,,,,,,"{'answer': 'Skipped after 0.01 seconds', 'question': ""Please enter the sum using your number keyboard <p>Press 'enter' to continue.</p>""}",Please enter the sum using your number keyboard <p>Press 'enter' to continue.</p>,,,,,,,,,,,lets,,,answer_counting,,,,,14471,,0.25,427,survey-text,,,,,,,,884
lets,BRv2UCuzPuVjUkm4Keyi,No,0,0,,,,2,r,False,,,,f,F,3,,,,,1306,lets,1 (1388).jpg,0.0-18.0-1.0-0.35,1,True,,0,False,,False,False,,False,False,,0,0,3,4,,,1,,,,0,,,,,images/1 (1388).jpg,,FF,,,0,0,,lets,,,finalTest,,0,0,144,21792,,0.38,909,image-keyboard-response,,,,final Foil,,,,884
lets,BSCvbbjz7rlmyDNO5REl,No,,0,,,,2,r,,,,,,,3,,,,,1306,lets,,0.0-6.0-5.0-0.1,1,,,0,,,,,,,,2,,,,,,,,,2,,,,,,,7,,,7,,,,,lets,,46,digitPresentation,,,,,9527,,0.17,116,html-keyboard-response,,,,,,,,884
lets,BSldAUGPG1WGevzZwLxc,No,,0,False,,,2,r,,,,,,T_target,3,,,,,1306,lets,1 (2201).jpg,0.0-9.0-2.0-0.19,1,False,True,0,,True,True,False,True,True,False,5,5,0,,0,,,1,,,,,,,,,images/1 (2201).jpg,B,B,,20,20,0,,lets,,,initial_study,19,19,0,0,12981,,0.23,330,image-keyboard-response,1,1,0,"current target, not in next trial",,,,884
lets,BVOFPyMW6xNdsa7TjK9f,No,0,0,,,,2,r,False,,False,,j,T_nontarget,3,,,,,1306,lets,1 (2070).jpg,0.0-17.0-1.0-0.8,1,True,,0,True,,True,False,,False,True,,4,5,2,0,,,,,,,0,,,,,images/1 (2070).jpg,,Cn,,,21,0,,lets,,,finalTest,,0,28,69,20912,,0.36,834,image-keyboard-response,,,,"studied only, in next trial",,,,884
lets,BWRgWDFQHEUPf6S7kmJe,No,,0,False,,,2,r,,,,,,T_nontarget,3,,,,,1306,lets,1 (2315).jpg,0.0-12.0-2.0-0.12,1,True,True,0,,True,True,False,False,False,False,8,8,0,2,0,,,1,,,,,,,,,images/1 (2315).jpg,A,A,,13,13,0,,lets,,,initial_study,0,0,0,78,16618,,0.29,551,image-keyboard-response,1,0,0,"studied only, not in trial",,,,884
lets,BXuWzFw6Fkcb2YmwDMLE,No,0,0,,,,2,r,False,,,,f,F,3,,,,,1306,lets,1 (1404).jpg,0.0-19.0-1.0-0.10,1,True,,0,False,,False,False,,False,False,,0,0,4,5,,,1,,,,0,,,,,images/1 (1404).jpg,,FF,,,0,0,,lets,,,finalTest,,0,0,167,22062,,0.38,932,image-keyboard-response,,,,final Foil,,,,884
lets,BY8ZARcmPQU7n6OzpYjE,No,0,0,,,,2,r,False,,,,f,F,3,,,,,1306,lets,1 (1793).jpg,0.0-24.0-1.0-0.25,1,True,,0,False,,False,False,,False,False,,0,0,9,0,,,1,,,,0,,,,,images/1 (1793).jpg,,FF,,,0,0,,lets,,,finalTest,,0,0,422,25125,,0.43,1187,image-keyboard-response,,,,final Foil,,,,884
lets,BZu6UYDr3JUVXVzDiD3I,No,0,0,,,,2,r,False,,,,f,F,3,,,,,1306,lets,1 (63).jpg,0.0-23.0-1.0-0.37,1,True,,0,False,,False,False,,False,False,,0,0,8,9,,,1,,,,0,,,,,images/1 (63).jpg,,FF,,,0,0,,lets,,,finalTest,,0,0,386,24691,,0.42,1151,image-keyboard-response,,,,final Foil,,,,884
lets,BiVIZSWxouH7hQC1SHJM,No,0,0,,,,2,r,False,,,,f,F,3,,,,,1306,lets,1 (343).jpg,0.0-22.0-1.0-0.10,1,True,,0,False,,False,False,,False,False,,0,0,7,1,,,1,,,,0,,,,,images/1 (343).jpg,,FF,,,0,0,,lets,,,finalTest,,0,0,311,23788,,0.41,1076,image-keyboard-response,,,,final Foil,,,,884
lets,BqFsgGwWztojeYtgAhqx,No,0,0,,,,2,r,False,False,False,,j,T_target,3,,,,,1306,lets,1 (1105).jpg,0.0-21.0-1.0-0.23,1,True,,0,True,,True,False,,True,True,,1,2,6,0,,,,,,,0,,,,,images/1 (1105).jpg,,Dn,,,20,0,,lets,,,finalTest,,18,26,276,23361,,0.40,1041,image-keyboard-response,,,,"current target, in next trial",,,,884
lets,BsdkIxRkjZgf9fyaMbzu,No,0,0,False,,,2,r,False,False,,,j,T_target,3,,,,,1306,lets,1 (1630).jpg,0.0-8.0-10.0-0.27,1,True,True,0,False,True,True,False,True,True,False,4,4,False,,0,,,1,,,,0,,,,,images/1 (1630).jpg,B,B,,19,19,0,,lets,,,initialTest_response,28,28,0,207,12654,,0.22,306,image-keyboard-response,1,1,0,"current target, not in next trial",,,,884
lets,C6QHbZ0SyraerxzsRQIg,No,,0,,,,2,r,,,,,,,3,,,,,1306,lets,,0.0-8.0-5.0-0.3,1,,,0,,,,,,,,4,,,,,,,,,4,,,,,,,8,,,8,,,,,lets,,56,digitPresentation,,,,,11935,,0.21,270,html-keyboard-response,,,,,,,,884
lets,C8sJflLmLaexWTzJu6X5,No,0,0,,,,2,r,False,,,,f,F,3,,,,,1306,lets,1 (1245).jpg,0.0-20.0-1.0-0.26,1,True,,0,False,,False,False,,False,False,,0,0,5,0,,,1,,,,0,,,,,images/1 (1245).jpg,,FF,,,0,0,,lets,,,finalTest,,0,0,231,22828,,0.39,996,image-keyboard-response,,,,final Foil,,,,884
lets,CAIR7kSv9KDZRqdAhgb7,No,0,0,,,,2,r,False,,,,f,F,3,,,,,1306,lets,1 (830).jpg,0.0-25.0-1.0-0.22,1,True,,0,False,,False,False,,False,False,,0,0,10,8,,,1,,,,0,,,,,images/1 (830).jpg,,FF,,,0,0,,lets,,,finalTest,,0,0,467,25663,,0.44,1232,image-keyboard-response,,,,final Foil,,,,884
lets,CBp43wEcVPGoRiihogj4,No,0,0,,,,2,r,False,,,,f,F,3,,,,,1306,lets,1 (1196).jpg,0.0-16.0-1.0-0.39,1,True,,0,False,,False,False,,False,False,,0,0,1,5,,,1,,,,0,,,,,images/1 (1196).jpg,,FF,,,0,0,,lets,,,finalTest,,0,0,40,20560,,0.36,805,image-keyboard-response,,,,final Foil,,,,884
lets,CBvw4u429nSAitC8uJk9,No,,0,,,,2,r,,,,,,,3,,,,,1306,lets,,0.0-11.0-5.0-0.6,1,,,0,,,,,,,,7,,,,,,,,,7,,,,,,,6,,,6,,,,,lets,,56,digitPresentation,,,,,15688,,0.27,501,html-keyboard-response,,,,,,,,884
lets,CFUFFKlKOTDxIJofdVZS,No,,0,False,,,2,r,,,,,,T_nontarget,3,,,,,1306,lets,1 (2170).jpg,0.0-14.0-2.0-0.14,1,True,True,0,,True,True,False,False,False,False,10,10,0,1,0,,,1,,,,,,,,,images/1 (2170).jpg,A,A,,15,15,0,,lets,,,initial_study,0,0,0,22,19056,,0.33,705,image-keyboard-response,1,0,0,"studied only, not in trial",,,,884
lets,CRLzGaxV375NSQzzJhLQ,No,0,0,,,,2,r,False,,,,j,T_nontarget,3,,,,,1306,lets,1 (2152).jpg,0.0-23.0-1.0-0.47,1,True,,0,True,,True,False,,False,False,,8,0,8,0,,,,,,,0,,,,,images/1 (2152).jpg,,A,,,2,0,,lets,,,finalTest,,0,0,396,24814,,0.43,1161,image-keyboard-response,,,,"studied only, not in trial",,,,884
lets,CUy2RHJg9xsBYNZvMpbe,No,0,0,,,,2,r,False,,,,f,F,3,,,,,1306,lets,1 (2039).jpg,0.0-16.0-1.0-0.37,1,True,,0,False,,False,False,,False,False,,0,0,1,3,,,1,,,,0,,,,,images/1 (2039).jpg,,FF,,,0,0,,lets,,,finalTest,,0,0,38,20538,,0.36,803,image-keyboard-response,,,,final Foil,,,,884
lets,CVUuBRyBeQGTDqWISnjB,No,0,0,False,,,2,r,False,False,,,j,T_target,3,,,,,1306,lets,1 (276).jpg,0.0-14.0-10.0-0.18,1,True,True,0,False,True,True,False,True,True,False,10,10,0,,0,,,1,,,,0,,,,,images/1 (276).jpg,B,B,,27,27,0,,lets,,,initialTest_response,19,19,0,368,19799,,0.34,753,image-keyboard-response,1,1,0,"current target, not in next trial",,,,884
lets,CYWd7OHsWqoMd5EK2VK9,No,0,0,,,,2,r,False,False,,,j,T_foil,3,,,,,1306,lets,1 (1189).jpg,0.0-19.0-1.0-0.7,1,True,,0,True,,False,False,,True,False,,10,0,4,10,,,,,,,0,,,,,images/1 (1189).jpg,,Fnn,,,0,0,,lets,,,finalTest,,22,0,164,22026,,0.38,929,image-keyboard-response,,,,"tested only, in next trial",,,,884
lets,CeQBqqZlVb9yKlJdNAvx,No,0,0,,,,2,r,False,,,,j,T_target,3,,,,,1306,lets,1 (1357).jpg,0.0-16.0-1.0-0.25,1,True,,0,True,,True,False,,True,False,,8,0,1,0,,,,,,,0,,,,,images/1 (1357).jpg,,B,,,30,0,,lets,,,finalTest,,1,0,26,20395,,0.35,791,image-keyboard-response,,,,"current target, not in next trial",,,,884
lets,CeWl70v34hJhGaARFaHD,No,,0,,,,2,r,,,,,,,3,,,,,1306,lets,,0.0-5.0-0.0-0.0-0.0,1,,,0,,,,,,,,,,,,,,,,,,,,,,,,"
                
    <p style='text-align: justify;color: black;background: white;font: caption-;'>1. A list of 30 pictures will appear on the screen one at a time. Study the pictures as they appear.</p>
    <p style='text-align: justify;color: black;background: white;font: caption-;'>2. After a brief blank period, you will see a series of numbers. Add these numbers as they appear. When prompted with ""TYPE THE SUM,"" use the number keys to enter your answer.</p>
     
    <p style='text-align: justify; color: black; background: white; font: caption-;'> 
    3. Next, you will see a series of test pictures from the list you just studied. For each picture, press the <strong>""J""</strong> key if you recognize it as one you have seen in the current list. Press the <strong>""F""</strong> key if you dont recognize it as one from the current list. <br>   
      <strong>Accumulated accuracy will be displayed throughout the experiment. Please pay attention and try to get an averaged performance higher than 60% (chance level is 50%).</strong></p><br>
    <p style='text-align: justify; color: black; background: white; font: caption-;'>
    You will begin with a practice list, followed by nine formal test lists. <strong>For each test, respond based only on the list you JUST studied. If a picture appeared in a previous list but not the current one, press the <strong>""F""</strong> key.</strong>
    </p>
                
<p style='text-align: justify;color: black;background: white;font: caption-;'>Do not worry if you are unsure about some test pictures. This is normal, but please make your best guess.</p>
    <p style='text-align: justify;color: black;background: white;font: caption-;'>Press the ""Enter"" key to start the practice list.</p>
      
      ",,,,,,,,lets,,,instructions_practice,,,,,7638,,0.14,5,html-keyboard-response,,,,,,,,1394
lets,Ci94Yuk5Ad3H9z6H0kW1,No,0,0,,,,2,r,False,False,False,,j,T_target,3,,,,,1306,lets,1 (19).jpg,0.0-25.0-1.0-0.19,1,True,,0,True,,True,False,,True,True,,6,7,10,0,,,,,,,0,,,,,images/1 (19).jpg,,Dn,,,21,0,,lets,,,finalTest,,9,9,464,25628,,0.44,1229,image-keyboard-response,,,,"current target, in next trial",,,,884
lets,CjWpZkerGVO7WNIAXCAv,No,0,0,False,,,2,r,False,False,,,j,T_target,3,,,,,1306,lets,1 (525).jpg,0.0-7.0-10.0-0.18,1,True,True,0,False,True,True,False,True,True,False,3,3,False,,0,,,1,,,,0,,,,,images/1 (525).jpg,B,B,,11,11,0,,lets,,,initialTest_response,19,19,0,184,11269,,0.20,221,image-keyboard-response,1,1,0,"current target, not in next trial",,,,884
lets,Ck2Rhg1kkmMe4vLYbSfE,No,0,0,,,,2,r,False,,,,f,F,3,,,,,1306,lets,1 (1694).jpg,0.0-17.0-1.0-0.25,1,True,,0,False,,False,False,,False,False,,0,0,2,2,,,1,,,,0,,,,,images/1 (1694).jpg,,FF,,,0,0,,lets,,,finalTest,,0,0,86,21116,,0.36,851,image-keyboard-response,,,,final Foil,,,,884
lets,CoLE2jiqbxH6wOAGqJxi,No,,0,True,,,2,r,,,,,,T_nontarget,3,,,,,1306,lets,1 (34).jpg,0.0-5.0-2.0-0.26,1,False,True,0,,True,True,False,False,False,True,1,1,2,,0,,,1,,,,,,,,,images/1 (34).jpg,Cn+1,Cn,,27,27,0,,lets,,,initial_study,0,0,22,0,8118,,0.15,33,image-keyboard-response,1,0,1,"studied only, in next trial",,,,1394
lets,Cp2Zg13EMPJxKYmLeroc,No,0,0,,,,2,r,False,,,,f,F,3,,,,,1306,lets,1 (694).jpg,0.0-22.0-1.0-0.34,1,True,,0,False,,False,False,,False,False,,0,0,7,6,,,1,,,,0,,,,,images/1 (694).jpg,,FF,,,0,0,,lets,,,finalTest,,0,0,335,24076,,0.41,1100,image-keyboard-response,,,,final Foil,,,,884
lets,CvRcYbfyM7xQi0Uh9sqX,No,0,0,,,,2,r,False,,,,f,F,3,,,,,1306,lets,1 (2068).jpg,0.0-19.0-1.0-0.20,1,True,,0,False,,False,False,,False,False,,0,0,4,2,,,1,,,,0,,,,,images/1 (2068).jpg,,FF,,,0,0,,lets,,,finalTest,,0,0,177,22184,,0.38,942,image-keyboard-response,,,,final Foil,,,,884
lets,CvZijqDshUH3EQnYSXMS,No,,0,False,,,2,r,,,,,,T_nontarget,3,,,,,1306,lets,1 (952).jpg,0.0-8.0-2.0-0.7,1,True,True,0,,True,True,False,False,False,False,4,4,0,7,0,,,1,,,,,,,,,images/1 (952).jpg,A,A,,8,8,0,,lets,,,initial_study,0,0,0,327,11627,,0.21,242,image-keyboard-response,1,0,0,"studied only, not in trial",,,,884
lets,CzNYhjBoq2XLQMYD72oa,No,0,0,,,,2,r,False,,,,f,F,3,,,,,1306,lets,1 (895).jpg,0.0-23.0-1.0-0.35,1,True,,0,False,,False,False,,False,False,,0,0,8,2,,,1,,,,0,,,,,images/1 (895).jpg,,FF,,,0,0,,lets,,,finalTest,,0,0,384,24668,,0.42,1149,image-keyboard-response,,,,final Foil,,,,884
lets,D0ELNI099haT0TO4pAYb,No,0,0,True,,,2,r,False,,False,,f,T_foil,3,,,,,1306,lets,1 (2160).jpg,0.0-14.0-10.0-0.13,1,True,False,0,False,False,True,False,True,False,False,10,9,0,,0,,,2,,,,0,,,,,images/1 (2160).jpg,Cn,Cn,,0,17,0,,lets,,,initialTest_response,14,0,0,390,19690,,0.34,748,image-keyboard-response,1,0,1,"studied only, in next trial, from last trial",,,,884
lets,D0tMk5DberpGroL4hHEt,No,,0,True,,,2,r,,,,,,T_target,3,,,,,1306,lets,1 (2231).jpg,0.0-11.0-2.0-0.27,1,False,True,0,,True,True,False,True,True,True,7,7,8,,0,,,1,,,,,,,,,images/1 (2231).jpg,Dn+1,Dn,,28,28,0,,lets,,,initial_study,28,28,23,0,15546,,0.27,490,image-keyboard-response,1,1,1,"current target, in next trial",,,,884
lets,D10Z63KnmFVxVG4MAaR0,No,0,0,,,,2,r,False,,False,,j,T_nontarget,3,,,,,1306,lets,1 (646).jpg,0.0-19.0-1.0-0.14,1,True,,0,True,,True,False,,False,True,,1,2,4,0,,,,,,,0,,,,,images/1 (646).jpg,,Cn,,,16,0,,lets,,,finalTest,,0,11,171,22108,,0.38,936,image-keyboard-response,,,,"studied only, in next trial",,,,884
lets,D3yomSwFIexDnVKnveH1,No,0,0,,,,2,r,False,,,,j,T_target,3,,,,,1306,lets,1 (1312).jpg,0.0-20.0-1.0-0.16,1,True,,0,True,,True,False,,True,False,,8,0,5,0,,,,,,,0,,,,,images/1 (1312).jpg,,B,,,27,0,,lets,,,finalTest,,27,0,221,22713,,0.39,986,image-keyboard-response,,,,"current target, not in next trial",,,,884
lets,D5QkMD5f2E3BdZZdsQVH,No,0,0,,,,2,r,False,,,,j,T_nontarget,3,,,,,1306,lets,1 (582).jpg,0.0-17.0-1.0-0.5,1,True,,0,True,,True,False,,False,False,,7,0,2,0,,,,,,,0,,,,,images/1 (582).jpg,,A,,,25,0,,lets,,,finalTest,,0,0,66,20875,,0.36,831,image-keyboard-response,,,,"studied only, not in trial",,,,884
lets,D7aeE8JbtLcKNDeYnI9F,No,0,0,,,,2,r,False,,,,f,F,3,,,,,1306,lets,1 (2365).jpg,0.0-17.0-1.0-0.38,1,True,,0,False,,False,False,,False,False,,0,0,2,10,,,1,,,,0,,,,,images/1 (2365).jpg,,FF,,,0,0,,lets,,,finalTest,,0,0,99,21266,,0.37,864,image-keyboard-response,,,,final Foil,,,,884
lets,DB6nCnROa1LOGt9juB6F,No,0,0,,,,2,r,False,,,,f,F,3,,,,,1306,lets,1 (1366).jpg,0.0-25.0-1.0-0.35,1,True,,0,False,,False,False,,False,False,,0,0,10,4,,,1,,,,0,,,,,images/1 (1366).jpg,,FF,,,0,0,,lets,,,finalTest,,0,0,480,25840,,0.44,1245,image-keyboard-response,,,,final Foil,,,,884
lets,DDVqjLTGvFaXRZJJqw20,No,0,0,,,,2,r,False,,,,f,F,3,,,,,1306,lets,1 (1318).jpg,0.0-19.0-1.0-0.33,1,True,,0,False,,False,False,,False,False,,0,0,4,1,,,1,,,,0,,,,,images/1 (1318).jpg,,FF,,,0,0,,lets,,,finalTest,,0,0,190,22342,,0.39,955,image-keyboard-response,,,,final Foil,,,,884
lets,DE0f9OlV9iHb8c1ONoJD,No,0,0,,,,2,r,False,,,,f,F,3,,,,,1306,lets,1 (1275).jpg,0.0-24.0-1.0-0.18,1,True,,0,False,,False,False,,False,False,,0,0,9,0,,,1,,,,0,,,,,images/1 (1275).jpg,,FF,,,0,0,,lets,,,finalTest,,0,0,415,25042,,0.43,1180,image-keyboard-response,,,,final Foil,,,,884
lets,DFlSUNsWZxHzToe8k4em,No,0,0,,,,2,r,False,,,,j,T_foil,3,,,,,1306,lets,1 (246).jpg,0.0-22.0-1.0-0.18,1,True,,0,True,,False,False,,True,False,,1,False,7,1,,,,,,,0,,,,,images/1 (246).jpg,,Fn,,,0,0,,lets,,,finalTest,,3,0,319,23880,,0.41,1084,image-keyboard-response,,,,"tested only, not in next trial",,,,884
lets,DNp2MMM5voyF13OZtAtU,No,0,0,,,,2,r,False,,,,j,T_target,3,,,,,1306,lets,1 (1423).jpg,0.0-23.0-1.0-0.20,1,True,,0,True,,True,False,,True,False,,4,0,8,0,,,,,,,0,,,,,images/1 (1423).jpg,,B,,,30,0,,lets,,,finalTest,,7,0,369,24477,,0.42,1134,image-keyboard-response,,,,"current target, not in next trial",,,,884
lets,DTKb2bDaUYfx7YxneGp1,No,,0,False,,,2,r,,,,,,T_nontarget,3,,,,,1306,lets,1 (2028).jpg,0.0-12.0-2.0-0.6,1,True,True,0,,True,True,False,False,False,False,8,8,0,2,0,,,1,,,,,,,,,images/1 (2028).jpg,A,A,,7,7,0,,lets,,,initial_study,0,0,0,67,16533,,0.29,545,image-keyboard-response,1,0,0,"studied only, not in trial",,,,884
lets,DVHW8YLHfbB3RT7pl6cb,No,,0,,,,2,r,,,,,,,3,,,,,1306,lets,,0.0-13.0-5.0-0.4,1,,,0,,,,,,,,9,,,,,,,,,5,,,,,,,9,,,9,,,,,lets,,50,digitPresentation,,,,,18109,,0.31,651,html-keyboard-response,,,,,,,,884
lets,DafjWj0hG3zqZwsRuaNY,No,0,0,True,,,2,r,False,False,,,f,T_foil,3,,,,,1306,lets,1 (745).jpg,0.0-14.0-10.0-0.7,1,True,True,0,False,False,False,False,True,True,False,10,10,0,4,0,,,1,,,,0,,,,,images/1 (745).jpg,Fnn+1,Fnn,,0,0,0,,lets,,,initialTest_response,8,8,0,185,19552,,0.34,742,image-keyboard-response,0,1,1,"tested only, in next trial",,,,884
lets,DcGTlnWOqs4zOf3a3a5w,No,,0,False,,,2,r,,,,,,T_target,3,,,,,1306,lets,1 (595).jpg,0.0-11.0-2.0-0.12,1,False,True,0,,True,True,False,True,True,False,7,7,0,,0,,,1,,,,,,,,,images/1 (595).jpg,B,B,,13,13,0,,lets,,,initial_study,4,4,0,0,15369,,0.27,475,image-keyboard-response,1,1,0,"current target, not in next trial",,,,884
lets,Dd7SMZm1PrUsMumPGV0Q,No,0,0,,,,2,r,False,,False,,j,T_nontarget,3,,,,,1306,lets,1 (1618).jpg,0.0-22.0-1.0-0.21,1,True,,0,True,,True,False,,False,False,,9,0,7,0,,,,,,,0,,,,,images/1 (1618).jpg,,Cn,,,10,0,,lets,,,finalTest,,0,0,322,23915,,0.41,1087,image-keyboard-response,,,,"studied only, in next trial",,,,884
lets,DjEK6JiegXs0oVXtgJBA,No,0,0,False,,,2,r,False,False,,,j,T_target,3,,,,,1306,lets,1 (551).jpg,0.0-6.0-10.0-0.1,1,True,True,0,False,True,True,False,True,True,False,2,2,False,,0,,,1,,,,0,,,,,images/1 (551).jpg,B,B,,5,5,0,,lets,,,initialTest_response,2,2,0,344,9676,,0.17,128,image-keyboard-response,1,1,0,"current target, not in next trial",,,,884
lets,DmmeJ8jrMHBs37rxHRL5,No,,0,True,,,2,r,,,,,,T_nontarget,3,,,,,1306,lets,1 (1337).jpg,0.0-14.0-2.0-0.11,1,False,True,0,,True,True,False,False,False,False,10,10,0,,0,,,1,,,,,,,,,images/1 (1337).jpg,Cn+1,Cn,,12,12,0,,lets,,,initial_study,0,0,0,0,19022,,0.33,702,image-keyboard-response,1,0,1,"studied only, in next trial",,,,884
lets,Dofkz64qQbBTqy5cGczF,No,,0,False,,,2,r,,,,,,T_nontarget,3,,,,,1306,lets,1 (2152).jpg,0.0-12.0-2.0-0.1,1,True,True,0,,True,True,False,False,False,False,8,8,0,8,0,,,1,,,,,,,,,images/1 (2152).jpg,A,A,,2,2,0,,lets,,,initial_study,0,0,0,396,16477,,0.29,540,image-keyboard-response,1,0,0,"studied only, not in trial",,,,884
lets,DrzMabXtzAwkIt0zd85E,No,0,0,,,,2,r,False,,,,f,F,3,,,,,1306,lets,1 (1117).jpg,0.0-22.0-1.0-0.9,1,True,,0,False,,False,False,,False,False,,0,0,7,9,,,1,,,,0,,,,,images/1 (1117).jpg,,FF,,,0,0,,lets,,,finalTest,,0,0,310,23776,,0.41,1075,image-keyboard-response,,,,final Foil,,,,884
lets,DtjPb3wpiDw7AcEUolAx,No,0,0,,,,2,r,False,,,,j,T_foil,3,,,,,1306,lets,1 (150).jpg,0.0-16.0-1.0-0.51,1,True,,0,True,,False,False,,True,False,,8,False,1,8,,,,,,,0,,,,,images/1 (150).jpg,,Fn,,,0,0,,lets,,,finalTest,,12,0,52,20702,,0.36,817,image-keyboard-response,,,,"tested only, not in next trial",,,,884
lets,DxLWhNpcVKn0I23IeNNf,No,0,0,,,,2,r,False,,,,j,T_target,3,,,,,1306,lets,1 (837).jpg,0.0-18.0-1.0-0.19,1,True,,0,True,,True,False,,True,False,,5,0,3,0,,,,,,,0,,,,,images/1 (837).jpg,,B,,,24,0,,lets,,,finalTest,,22,0,128,21610,,0.37,893,image-keyboard-response,,,,"current target, not in next trial",,,,884
lets,E8hkwWa7XH3D2krLQ84H,No,0,0,True,,,2,r,False,False,False,,j,T_target,3,,,,,1306,lets,1 (160).jpg,0.0-13.0-10.0-0.27,1,False,True,0,False,True,True,False,True,True,True,9,9,10,,0,,,1,,,,0,,,,,images/1 (160).jpg,Dn+1,Dn,,13,13,0,,lets,,,initialTest_response,28,28,7,0,18813,,0.33,686,image-keyboard-response,1,1,1,"current target, in next trial",,,,884
lets,EAwmuHTsXYEqcpdOyXxV,No,,0,,,,2,r,,,,,,,3,,,,,1306,lets,,0.0-11.0-7.0-0.0,1,,,0,,,,,,,,,,,,,,,,,,,,,,,,<p background:white>INCORRECT!</p>,,,,,,,,lets,,,promptfeedback,,,,,15723,,0.27,504,html-keyboard-response,,,,,,,,884
lets,ED42Zgxmx3R7uSAyySeA,No,0,0,,,,2,r,False,,,,f,F,3,,,,,1306,lets,1 (210).jpg,0.0-18.0-1.0-0.36,1,True,,0,False,,False,False,,False,False,,0,0,3,0,,,1,,,,0,,,,,images/1 (210).jpg,,FF,,,0,0,,lets,,,finalTest,,0,0,145,21804,,0.38,910,image-keyboard-response,,,,final Foil,,,,884
lets,EHTwAMo4QPASbELo7Kmy,No,,0,False,,,2,r,,,,,,T_nontarget,3,,,,,1306,lets,1 (1739).jpg,0.0-10.0-2.0-0.12,1,True,True,0,,True,True,False,False,False,False,6,6,0,7,0,,,1,,,,,,,,,images/1 (1739).jpg,A,A,,13,13,0,,lets,,,initial_study,0,0,0,315,14142,,0.25,399,image-keyboard-response,1,0,0,"studied only, not in trial",,,,884
lets,EMkVuSNoCW8IYmrEaiv9,No,0,0,True,,,2,r,False,,False,,f,T_foil,3,,,,,1306,lets,1 (1618).jpg,0.0-14.0-10.0-0.8,1,True,False,0,False,False,True,False,True,False,False,10,9,0,,0,,,2,,,,0,,,,,images/1 (1618).jpg,Cn,Cn,,0,10,0,,lets,,,initialTest_response,9,0,0,322,19575,,0.34,743,image-keyboard-response,1,0,1,"studied only, in next trial, from last trial",,,,884
lets,EN5WzT5jGnF03g1vXHtj,No,,0,False,,,2,r,,,,,,T_target,3,,,,,1306,lets,1 (395).jpg,0.0-7.0-2.0-0.12,1,False,True,0,,True,True,False,True,True,False,3,3,0,,0,,,1,,,,,,,,,images/1 (395).jpg,B,B,,13,13,0,,lets,,,initial_study,27,27,0,0,10488,,0.19,171,image-keyboard-response,1,1,0,"current target, not in next trial",,,,884
lets,EQ7MnKtQXJ21MlzPVXfl,No,,0,False,,,2,r,,,,,,T_target,3,,,,,1306,lets,1 (679).jpg,0.0-13.0-2.0-0.5,1,True,True,0,,True,True,False,True,True,False,9,9,0,4,0,,,1,,,,,,,,,images/1 (679).jpg,B,B,,6,6,0,,lets,,,initial_study,25,25,0,181,17741,,0.31,620,image-keyboard-response,1,1,0,"current target, not in next trial",,,,884
lets,EUypYGtGKQth0QlXcXWb,No,,0,True,,,2,r,,,,,,T_target,3,,,,,1306,lets,1 (1573).jpg,0.0-9.0-2.0-0.6,1,True,True,0,,True,True,False,True,True,True,5,5,6,5,0,,,1,,,,,,,,,images/1 (1573).jpg,Dn+1,Dn,,7,7,0,,lets,,,initial_study,14,14,27,244,12822,,0.23,317,image-keyboard-response,1,1,1,"current target, in next trial",,,,884
lets,EVB86LH7UYRVzeIVPsO6,No,0,0,False,,,2,r,False,False,,,j,T_target,3,,,,,1306,lets,1 (1549).jpg,0.0-10.0-10.0-0.19,1,True,True,0,False,True,True,False,True,True,False,6,6,False,,0,,,1,,,,0,,,,,images/1 (1549).jpg,B,B,,30,30,0,,lets,,,initialTest_response,20,20,0,482,14947,,0.26,450,image-keyboard-response,1,1,0,"current target, not in next trial",,,,884
lets,EaOsvXJbim9zaR1cir9j,No,0,0,False,,,2,r,False,False,,,j,T_target,3,,,,,1306,lets,1 (584).jpg,0.0-10.0-10.0-0.12,1,True,True,0,False,True,True,False,True,True,False,6,6,False,,0,,,1,,,,0,,,,,images/1 (584).jpg,B,B,,1,1,0,,lets,,,initialTest_response,13,13,0,437,14787,,0.26,443,image-keyboard-response,1,1,0,"current target, not in next trial",,,,884
lets,ElASxFMo9xHX3Bjtyp4J,No,,0,False,,,2,r,,,,,,T_target,3,,,,,1306,lets,1 (834).jpg,0.0-5.0-2.0-0.3,1,True,True,0,,True,True,False,True,True,False,1,1,0,1,0,,,1,,,,,,,,,images/1 (834).jpg,B,B,,4,4,0,,lets,,,initial_study,24,24,0,7,7721,,0.14,10,image-keyboard-response,1,1,0,"current target, not in next trial",,,,1394
lets,EqIn5rKokjnXPMqI4HRN,No,,0,False,,,2,r,,,,,,T_target,3,,,,,1306,lets,1 (1082).jpg,0.0-11.0-2.0-0.16,1,False,True,0,,True,True,False,True,True,False,7,7,0,,0,,,1,,,,,,,,,images/1 (1082).jpg,B,B,,17,17,0,,lets,,,initial_study,7,7,0,0,15420,,0.27,479,image-keyboard-response,1,1,0,"current target, not in next trial",,,,884
lets,F1XHfjTTfBdEdLELedig,No,0,0,,,,2,r,False,,,,j,T_nontarget,3,,,,,1306,lets,1 (1116).jpg,0.0-23.0-1.0-0.42,1,True,,0,True,,True,False,,False,False,,1,0,8,0,,,,,,,0,,,,,images/1 (1116).jpg,,A,,,22,0,,lets,,,finalTest,,0,0,391,24750,,0.43,1156,image-keyboard-response,,,,"studied only, not in trial",,,,884
lets,F5d11J03IESE9q8XyswA,No,0,0,,,,2,r,False,,,,j,T_target,3,,,,,1306,lets,1 (119).jpg,0.0-21.0-1.0-0.20,1,True,,0,True,,True,False,,True,False,,5,0,6,0,,,,,,,0,,,,,images/1 (119).jpg,,B,,,19,0,,lets,,,finalTest,,18,0,273,23324,,0.40,1038,image-keyboard-response,,,,"current target, not in next trial",,,,884
lets,FENEBSuAtooits34sQpf,No,,0,,,,2,r,,,,,,,3,,,,,1306,lets,,0.0-13.0-5.0-0.2,1,,,0,,,,,,,,9,,,,,,,,,3,,,,,,,9,,,9,,,,,lets,,50,digitPresentation,,,,,18087,,0.31,649,html-keyboard-response,,,,,,,,884
lets,FQeetvO91M1UFZjDJjFR,No,,0,,,,2,r,,,,,,,3,,,,,1306,lets,,0.0-29.0,1,,,0,,,,,,,,,,,,,,,,,,,,,,,,,,,,,,,,lets,True,,,,,,,319454,,5.34,1260,fullscreen,,,,,,,,884
lets,FURmRRqyKNBfDa6UlrNl,No,,0,,,,2,r,,,,,,,3,,,,,1306,lets,,0.0-12.0-5.0-0.6,1,,,0,,,,,,,,8,,,,,,,,,7,,,,,,,5,,,5,,,,,lets,,50,digitPresentation,,,,,16909,,0.29,577,html-keyboard-response,,,,,,,,884
lets,FZiWzlIlSrfMyOYuWhXk,No,0,0,True,,,2,r,False,,False,,f,T_foil,3,,,,,1306,lets,1 (891).jpg,0.0-9.0-10.0-0.5,1,True,False,0,False,False,True,False,True,False,True,5,4,5,,0,,,2,,,,0,,,,,images/1 (891).jpg,Cn,Cn,,0,5,0,,lets,,,initialTest_response,6,0,6,3,13395,,0.24,360,image-keyboard-response,1,0,1,"studied only, in next trial, from last trial",,,,884
lets,Fc786Mquwd2hDdzlZ9Ul,No,0,0,,,,2,r,False,,,,f,F,3,,,,,1306,lets,1 (827).jpg,0.0-17.0-1.0-0.28,1,True,,0,False,,False,False,,False,False,,0,0,2,7,,,1,,,,0,,,,,images/1 (827).jpg,,FF,,,0,0,,lets,,,finalTest,,0,0,89,21151,,0.37,854,image-keyboard-response,,,,final Foil,,,,884
lets,FkS1I3VKBEwNLe9AEjBe,No,,0,,,,2,r,,,,,,,3,,,,,1306,lets,,0.0-5.0-4.0-0.0,1,,,0,,,,,,,,,,,,,,,,,,,,,,,,"<div style=""font-size:60px;"">+</div>",,,,,,,,lets,,,fixation,,,,,8200,,0.15,38,html-keyboard-response,,,,,,,,1394
lets,Fm5LqFnP7p6PQ3oLMrLO,No,0,0,,,,2,r,False,False,False,,j,T_target,3,,,,,1306,lets,1 (452).jpg,0.0-22.0-1.0-0.47,1,True,,0,True,,True,False,,True,True,,7,8,7,0,,,,,,,0,,,,,images/1 (452).jpg,,Dn,,,23,0,,lets,,,finalTest,,18,8,348,24228,,0.42,1113,image-keyboard-response,,,,"current target, in next trial",,,,884
lets,FozdlOT7Vsw5sLq8BLLZ,No,0,0,,,,2,r,False,,,,j,T_nontarget,3,,,,,1306,lets,1 (2259).jpg,0.0-22.0-1.0-0.13,1,True,,0,True,,True,False,,False,False,,8,0,7,0,,,,,,,0,,,,,images/1 (2259).jpg,,A,,,14,0,,lets,,,finalTest,,0,0,314,23822,,0.41,1079,image-keyboard-response,,,,"studied only, not in trial",,,,884
lets,FpSpUnStGCfEm48Rs40l,No,,0,True,,,2,r,,,,,,T_nontarget,3,,,,,1306,lets,1 (1690).jpg,0.0-13.0-2.0-0.24,1,False,True,0,,True,True,False,False,False,True,9,9,10,,0,,,1,,,,,,,,,images/1 (1690).jpg,Cn+1,Cn,,25,25,0,,lets,,,initial_study,0,0,10,0,17966,,0.31,639,image-keyboard-response,1,0,1,"studied only, in next trial",,,,884
lets,FwFxFbeBlQfDkxWP9rcp,No,0,0,,,,2,r,False,,,,j,T_nontarget,3,,,,,1306,lets,1 (882).jpg,0.0-18.0-1.0-0.17,1,True,,0,True,,True,False,,False,False,,10,0,3,0,,,,,,,0,,,,,images/1 (882).jpg,,A,,,26,0,,lets,,,finalTest,,0,0,126,21588,,0.37,891,image-keyboard-response,,,,"studied only, not in trial",,,,884
lets,FwdANpz9YF4GktJM0MeJ,No,0,0,,,,2,r,False,,,,j,T_target,3,,,,,1306,lets,1 (1593).jpg,0.0-23.0-1.0-0.46,1,True,,0,True,,True,False,,True,False,,8,0,8,0,,,,,,,0,,,,,images/1 (1593).jpg,,B,,,18,0,,lets,,,finalTest,,3,0,395,24801,,0.43,1160,image-keyboard-response,,,,"current target, not in next trial",,,,884
lets,G0I7nyGpY2XFTGvJ0iqt,No,,0,,,,2,r,,,,,,,3,,,,,1306,lets,,0.0-14.0-5.0-0.3,1,,,0,,,,,,,,10,,,,,,,,,4,,,,,,,4,,,4,,,,,lets,,48,digitPresentation,,,,,19296,,0.33,726,html-keyboard-response,,,,,,,,884
lets,G0asWhN4cbFw8wzzgdTL,No,0,0,True,,,2,r,False,False,False,,f,T_foil,3,,,,,1306,lets,1 (576).jpg,0.0-9.0-10.0-0.8,1,True,False,0,False,False,False,False,True,False,True,5,4,5,,0,,,2,,,,0,,,,,images/1 (576).jpg,Fnn,Fnn,,0,0,0,,lets,,,initialTest_response,9,0,9,83,13460,,0.24,363,image-keyboard-response,0,1,1,"tested only, in next trial, from last trial",,,,884
