HaveSeenImages,accumulated_accuracy,all_accumulated_accuracy,anRepeatedItem,browser,browser_version,codeversion,condition,correct,correct_appear1,correct_appear2,correct_response,correct_response_key,current_assignmentTypesWithinList,designversion,failed_audio,failed_images,failed_video,fullscreen,height,id,id_picName,internal_node_id,is_changedfullscreen,is_chosenFinal,is_currentObjAppear1,is_finished,is_old,is_studied_appear0_initial,is_studied_appear1_initial,is_studied_appear2_initial,is_tested_appear0_initial,is_tested_appear1_initial,is_tested_appear2_initial,listNum_appear0_initial,listNum_appear1_initial,listNum_appear2_initial,listNum_infinalOrder,listNum_pickedFrom,microphone,mobile,num_CurrObjAppear,os,presPos_digit,question_order,recognition_correct,response,responsesum,rt,session_id,stimulus,stimulusConditionName_nPlusOneTrial,stimulusConditions,stimulus_id,studyPos_appear0_initial,studyPos_appear1_initial,studyPos_appear2_initial,study_id,subject_id,success,sum_currList,task,testPos_appear0_initial,testPos_appear1_initial,testPos_appear2_initial,testPos_final,time_elapsed,timeout,timepassed_mins,trial_document_id,trial_index,trial_type,type_code_studiedCurr,type_code_testiedCurr,type_code_testiedNext,type_comment,vsync_rate,webaudio,webcam,width
,,,,,,2,r,,,,,,,3,[],[],[],,1308,,,0.0-0.0,0,,,0,,,,,,,,,,,,,,,,,,,,,,,0yovcg9efvbs,,,,,,,,6814acf7a2b0960317ac048d,653694e3edfb539b2c4ada07,True,,,,,,,16419,False,0.27,2kuf87KV6DJAjOqvdVrc,0,preload,,,,,,,,1971
,,,,,,2,r,,,,,,,3,,,,,1308,653694e3edfb539b2c4ada07,,0.0-1.0,0,,,0,,,,,,,,,,,,,,,,,,,,{'Q0': '653694e3edfb539b2c4ada07'},,6412,0yovcg9efvbs,,,,,,,,6814acf7a2b0960317ac048d,653694e3edfb539b2c4ada07,,,enterid,,,,,22838,,0.38,AjGKDa7bAASlZszyoBHV,1,survey-text,,,,,,,,1971
,,,,chrome,135.0.0,2,r,,,,,,,3,,,,True,1308,653694e3edfb539b2c4ada07,,0.0-2.0,0,,,0,,,,,,,,,,,,,False,False,,Linux,,,,,,,0yovcg9efvbs,,,,,,,,6814acf7a2b0960317ac048d,653694e3edfb539b2c4ada07,,,,,,,,23824,,0.40,DLdpD5IL8VehBLjhApnp,2,browser-check,,,,,61.46,True,False,1971
,,,,,,2,r,,,,,,,3,,,,,1308,653694e3edfb539b2c4ada07,,0.0-3.0,0,,,0,,,,,,,,,,,,,,,,,,[0],,"{'consent': ""I have read and understand this information and agree to join this study. <p style='text-align: left'> Clicking to confirm, then press 'enter' to continue.</p>""}",,2503,0yovcg9efvbs,,,,,,,,6814acf7a2b0960317ac048d,653694e3edfb539b2c4ada07,,,,,,,,26330,,0.44,RFQOatI69g00H8BZNtqc,3,survey-multi-choice,,,,,,,,1971
,0.5,,False,,,2,r,False,False,,,f,T_foil,3,,,,,1200,673ccb0691efe91cd015dcf7,1 (1263).jpg,0.0-9.0-10.0-0.11,0,False,True,0,False,False,False,False,True,True,False,5,5,False,,0,,,1,,,,0,j,,871,,images/1 (1263).jpg,Fn+1,Fn,,0,0,0,,673ccb0691efe91cd015dcf7,,,initialTest_response,12,12,0,0,1321464,,22.06,01SQXn9yE9nhPGHghjOG,366,image-keyboard-response,0,1,0,"tested only, not in next trial",,,,1920
,0.8181818181818182,,False,,,2,r,True,True,,,j,T_target,3,,,,,1200,673ccb0691efe91cd015dcf7,1 (2361).jpg,0.0-11.0-10.0-0.21,0,True,True,0,False,True,True,False,True,True,False,7,7,False,,0,,,1,,,,1,j,,736,,images/1 (2361).jpg,B,B,,3,3,0,,673ccb0691efe91cd015dcf7,,,initialTest_response,22,22,0,166,1594578,,26.61,0387qH670BZyWorj6ZYe,528,image-keyboard-response,1,1,0,"current target, not in next trial",,,,1920
,0.5888888888888894,,,,,2,r,True,False,False,,j,T_target,3,,,,,1200,673ccb0691efe91cd015dcf7,1 (1113).jpg,0.0-21.0-1.0-0.17,0,True,,0,True,,True,False,,True,True,,5,6,6,0,,,,,,,1,j,,507,,images/1 (1113).jpg,,Dn,,,3,0,,673ccb0691efe91cd015dcf7,,,finalTest,,6,6,270,2358050,,39.34,07kzkKGvxeM2TXaiYu9y,1035,image-keyboard-response,,,,"current target, in next trial",,,,1920
,0.5789473684210527,,False,,,2,r,True,True,,,j,T_target,3,,,,,1200,673ccb0691efe91cd015dcf7,1 (1650).jpg,0.0-13.0-10.0-0.18,0,False,True,0,False,True,True,False,True,True,False,9,9,False,,0,,,1,,,,1,j,,759,,images/1 (1650).jpg,B,B,,18,18,0,,673ccb0691efe91cd015dcf7,,,initialTest_response,19,19,0,0,1847868,,30.83,0A9F7iVd3Rm0Kpe6p1uB,677,image-keyboard-response,1,1,0,"current target, not in next trial",,,,1920
,,,,,,2,r,,,,,,,3,,,,,1200,673ccb0691efe91cd015dcf7,,0.0-11.0-5.0-0.6,0,,,0,,,,,,,,7,,,,,,,,,7,,,,,,,5,,,5,,,,,673ccb0691efe91cd015dcf7,,53,digitPresentation,,,,,1563392,,26.09,0O2RFyJ5cGA4XQD3DEQK,501,html-keyboard-response,,,,,,,,1920
,,,False,,,2,r,,,,,,T_nontarget,3,,,,,1200,673ccb0691efe91cd015dcf7,1 (1914).jpg,0.0-14.0-2.0-0.26,0,False,True,0,,True,True,False,False,False,False,10,10,0,,0,,,1,,,,,,,,,images/1 (1914).jpg,A,A,,27,27,0,,673ccb0691efe91cd015dcf7,,,initial_study,0,0,0,0,1917517,,32.00,0PTuqI8tN8XWVHygQDsd,717,image-keyboard-response,1,0,0,"studied only, not in trial",,,,1920
,0.5842696629213487,,,,,2,r,True,,,,j,T_target,3,,,,,1200,673ccb0691efe91cd015dcf7,1 (154).jpg,0.0-21.0-1.0-0.14,0,True,,0,True,,True,False,,True,False,,10,0,6,0,,,,,,,1,j,,415,,images/1 (154).jpg,,B,,,15,0,,673ccb0691efe91cd015dcf7,,,finalTest,,13,0,267,2356240,,39.31,0PeuA4aBePIOrDrbgzV0,1032,image-keyboard-response,,,,"current target, not in next trial",,,,1920
,,,False,,,2,r,,,,,,T_nontarget,3,,,,,1200,673ccb0691efe91cd015dcf7,1 (2291).jpg,0.0-12.0-2.0-0.20,0,True,True,0,,True,True,False,False,False,False,8,8,0,1,0,,,1,,,,,,,,,images/1 (2291).jpg,A,A,,21,21,0,,673ccb0691efe91cd015dcf7,,,initial_study,0,0,0,58,1647736,,27.50,0Rdwh26hKAljdHgAybbD,559,image-keyboard-response,1,0,0,"studied only, not in trial",,,,1920
,,,False,,,2,r,,,,,,T_nontarget,3,,,,,1200,673ccb0691efe91cd015dcf7,1 (1308).jpg,0.0-6.0-2.0-0.3,0,False,True,0,,True,True,False,False,False,False,2,2,0,,0,,,1,,,,,,,,,images/1 (1308).jpg,A,A,,4,4,0,,673ccb0691efe91cd015dcf7,,,initial_study,0,0,0,0,744972,,12.45,0TRG0RVbeuHGTqhJ0e3N,86,image-keyboard-response,1,0,0,"studied only, not in trial",,,,1920
,0.6428571428571429,,False,,,2,r,True,True,,,j,T_target,3,,,,,1200,673ccb0691efe91cd015dcf7,1 (264).jpg,0.0-6.0-10.0-0.13,0,False,True,0,False,True,True,False,True,True,False,2,2,False,,0,,,1,,,,1,j,,409,,images/1 (264).jpg,B,B,,20,20,0,,673ccb0691efe91cd015dcf7,,,initialTest_response,14,14,0,0,857259,,14.32,0U0DBtALhgKCblGHBs7M,140,image-keyboard-response,1,1,0,"current target, not in next trial",,,,1920
,0.6785714285714286,,True,,,2,r,True,True,,,j,T_target,3,,,,,1200,673ccb0691efe91cd015dcf7,1 (191).jpg,0.0-5.0-10.0-0.27,0,False,True,0,False,True,True,False,True,True,True,1,1,2,,0,,,1,,,,1,j,,603,,images/1 (191).jpg,Dn+1,Dn,,30,30,0,,673ccb0691efe91cd015dcf7,,,initialTest_response,28,28,13,0,385199,,6.46,0YekENrE0B2LaFHlt3yK,78,image-keyboard-response,1,1,1,"current target, in next trial",,,,1920
,0.8333333333333334,,True,,,2,r,True,,True,,f,T_foil,3,,,,,1200,673ccb0691efe91cd015dcf7,1 (2126).jpg,0.0-11.0-10.0-0.23,0,True,False,0,False,False,True,False,True,False,True,7,6,7,,0,,,2,,,,1,f,,766,,images/1 (2126).jpg,Cn,Cn,,0,4,0,,673ccb0691efe91cd015dcf7,,,initialTest_response,24,0,24,15,1596158,,26.64,0b2V7zpROyijuJUpS6sZ,530,image-keyboard-response,1,0,1,"studied only, in next trial, from last trial",,,,1920
,,,,,,2,r,,,,,,,3,,,,,1200,673ccb0691efe91cd015dcf7,,0.0-12.0-3.0-0.0,0,,,0,,,,,,,,,,,,,,,,,,,,,,,,Summing up the digits as they appear,,,,,,,,673ccb0691efe91cd015dcf7,,,prompt,,,,,1668922,,27.85,0e5uQJWdermogleLWuRn,569,html-keyboard-response,,,,,,,,1920
,0.589371980676329,,,,,2,r,True,,,,f,F,3,,,,,1200,673ccb0691efe91cd015dcf7,1 (240).jpg,0.0-20.0-1.0-0.2,0,True,,0,False,,False,False,,False,False,,0,0,5,6,,,1,,,,1,f,,2666,,images/1 (240).jpg,,FF,,,0,0,,673ccb0691efe91cd015dcf7,,,finalTest,,0,0,207,2297519,,38.33,0eeefg796KPTm7FG7efk,972,image-keyboard-response,,,,final Foil,,,,1920
,0.5655172413793106,,,,,2,r,True,,,,f,F,3,,,,,1200,673ccb0691efe91cd015dcf7,1 (820).jpg,0.0-24.0-1.0-0.38,0,True,,0,False,,False,False,,False,False,,0,0,9,0,,,1,,,,1,f,,883,,images/1 (820).jpg,,FF,,,0,0,,673ccb0691efe91cd015dcf7,,,finalTest,,0,0,435,2525518,,42.13,0ns4UBdJSsZA0o4qify0,1200,image-keyboard-response,,,,final Foil,,,,1920
,0,,True,,,2,r,False,False,,,f,T_foil,3,,,,,1200,673ccb0691efe91cd015dcf7,1 (2082).jpg,0.0-5.0-10.0-0.0,0,True,True,0,False,False,False,False,True,True,True,1,1,2,1,0,,,1,,,,0,,,,,images/1 (2082).jpg,Fnn+1,Fnn,,0,0,0,,673ccb0691efe91cd015dcf7,,,initialTest_response,1,1,23,21,358622,,6.01,0pWczbu771eoZLhSGjNk,51,image-keyboard-response,0,1,1,"tested only, in next trial",,,,1920
,0.5900000000000005,,,,,2,r,False,,,,f,F,3,,,,,1200,673ccb0691efe91cd015dcf7,1 (935).jpg,0.0-19.0-1.0-0.43,0,True,,0,False,,False,False,,False,False,,0,0,4,4,,,1,,,,0,j,,564,,images/1 (935).jpg,,FF,,,0,0,,673ccb0691efe91cd015dcf7,,,finalTest,,0,0,200,2288583,,38.18,138DYg0TOSLqMClPZtk8,965,image-keyboard-response,,,,final Foil,,,,1920
,0.5863453815261048,,,,,2,r,True,,,,j,T_nontarget,3,,,,,1200,673ccb0691efe91cd015dcf7,1 (818).jpg,0.0-20.0-1.0-0.44,0,True,,0,True,,True,False,,False,False,,10,0,5,0,,,,,,,1,j,,527,,images/1 (818).jpg,,A,,,29,0,,673ccb0691efe91cd015dcf7,,,finalTest,,0,0,249,2335779,,38.97,1BM6NbBUrroNFQkFbX2Q,1014,image-keyboard-response,,,,"studied only, not in trial",,,,1920
,,,False,,,2,r,,,,,,T_target,3,,,,,1200,673ccb0691efe91cd015dcf7,1 (2195).jpg,0.0-6.0-2.0-0.21,0,True,True,0,,True,True,False,True,True,False,2,2,0,2,0,,,1,,,,,,,,,images/1 (2195).jpg,B,B,,22,22,0,,673ccb0691efe91cd015dcf7,,,initial_study,3,3,0,106,783093,,13.09,1EEpzTjpRIYABAzZI3b6,104,image-keyboard-response,1,1,0,"current target, not in next trial",,,,1920
,0.6044776119402985,,,,,2,r,True,,,,j,T_foil,3,,,,,1200,673ccb0691efe91cd015dcf7,1 (1276).jpg,0.0-18.0-1.0-0.25,0,True,,0,True,,False,False,,True,False,,4,False,3,4,,,,,,,1,j,,687,,images/1 (1276).jpg,,Fn,,,0,0,,673ccb0691efe91cd015dcf7,,,finalTest,,22,0,134,2231447,,37.23,1FHUKRP4uXq6J0J80n7l,899,image-keyboard-response,,,,"tested only, not in next trial",,,,1920
,,,,,,2,r,,,,,,,3,,,,,1200,673ccb0691efe91cd015dcf7,,0.0-11.0-5.0-0.3,0,,,0,,,,,,,,7,,,,,,,,,4,,,,,,,6,,,6,,,,,673ccb0691efe91cd015dcf7,,53,digitPresentation,,,,,1554333,,25.94,1G2bvH2QlCuGfCbVl1U5,498,html-keyboard-response,,,,,,,,1920
,,,,,,2,r,,,,,,,3,,,,,1200,673ccb0691efe91cd015dcf7,,0.0-7.0-5.0-0.2,0,,,0,,,,,,,,3,,,,,,,,,3,,,,,,,7,,,7,,,,,673ccb0691efe91cd015dcf7,,54,digitPresentation,,,,,984397,,16.44,1HaxZr37RRwIIWKLYNCI,193,html-keyboard-response,,,,,,,,1920
,0.6071428571428571,,,,,2,r,False,,,,f,F,3,,,,,1200,673ccb0691efe91cd015dcf7,1 (95).jpg,0.0-18.0-1.0-0.3,0,True,,0,False,,False,False,,False,False,,0,0,3,0,,,1,,,,0,j,,428,,images/1 (95).jpg,,FF,,,0,0,,673ccb0691efe91cd015dcf7,,,finalTest,,0,0,112,2216987,,36.99,1IHzKafSxeR9bNZMKuPB,877,image-keyboard-response,,,,final Foil,,,,1920
,,,,,,2,r,,,,,,,3,,,,,1200,673ccb0691efe91cd015dcf7,,0.0-10.0-5.0-0.5,0,,,0,,,,,,,,6,,,,,,,,,6,,,,,,,8,,,8,,,,,673ccb0691efe91cd015dcf7,,54,digitPresentation,,,,,1428333,,23.84,1K58tQ7lUMrRGiX0WbHX,424,html-keyboard-response,,,,,,,,1920
,,,False,,,2,r,,,,,,T_nontarget,3,,,,,1200,673ccb0691efe91cd015dcf7,1 (1398).jpg,0.0-7.0-2.0-0.27,0,True,True,0,,True,True,False,False,False,False,3,3,0,7,0,,,1,,,,,,,,,images/1 (1398).jpg,A,A,,28,28,0,,673ccb0691efe91cd015dcf7,,,initial_study,0,0,0,312,968883,,16.19,1NAnpi5RFmT0ns7QcIRO,186,image-keyboard-response,1,0,0,"studied only, not in trial",,,,1920
,0.5818965517241385,,,,,2,r,True,,,,j,T_nontarget,3,,,,,1200,673ccb0691efe91cd015dcf7,1 (2146).jpg,0.0-20.0-1.0-0.27,0,True,,0,True,,True,False,,False,False,,5,0,5,0,,,,,,,1,j,,546,,images/1 (2146).jpg,,A,,,11,0,,673ccb0691efe91cd015dcf7,,,finalTest,,0,0,232,2323443,,38.76,1PjmrNfiH82ffPQ7dsTQ,997,image-keyboard-response,,,,"studied only, not in trial",,,,1920
,0.6842105263157895,,True,,,2,r,False,True,False,,f,T_foil,3,,,,,1200,673ccb0691efe91cd015dcf7,1 (1644).jpg,0.0-6.0-10.0-0.18,0,False,False,0,False,False,False,False,True,False,True,2,1,2,,0,,,2,,,,0,j,,658,,images/1 (1644).jpg,Fnn,Fnn,,0,0,0,,673ccb0691efe91cd015dcf7,,,initialTest_response,19,0,19,0,861142,,14.39,1QCqWPE095Juf08jzB5R,145,image-keyboard-response,0,1,1,"tested only, in next trial, from last trial",,,,1920
,0.6615384615384615,,,,,2,r,True,,,,j,T_nontarget,3,,,,,1200,673ccb0691efe91cd015dcf7,1 (2132).jpg,0.0-17.0-1.0-0.4,0,True,,0,True,,True,False,,False,False,,2,0,2,0,,,,,,,1,j,,1385,,images/1 (2132).jpg,,A,,,30,0,,673ccb0691efe91cd015dcf7,,,finalTest,,0,0,65,2169586,,36.20,1UGr3PemGV2eRM2DOKXk,830,image-keyboard-response,,,,"studied only, not in trial",,,,1920
,0.568306010928962,,,,,2,r,True,,,,j,T_foil,3,,,,,1200,673ccb0691efe91cd015dcf7,1 (2252).jpg,0.0-19.0-1.0-0.26,0,True,,0,True,,False,False,,True,False,,5,False,4,5,,,,,,,1,j,,760,,images/1 (2252).jpg,,Fn,,,0,0,,673ccb0691efe91cd015dcf7,,,finalTest,,26,0,183,2275148,,37.96,1UkAOajEvCPmuEHxkIhW,948,image-keyboard-response,,,,"tested only, not in next trial",,,,1920
,0.75,,False,,,2,r,True,True,,,j,T_target,3,,,,,1200,673ccb0691efe91cd015dcf7,1 (2359).jpg,0.0-12.0-10.0-0.7,0,True,True,0,False,True,True,False,True,True,False,8,8,False,,0,,,1,,,,1,j,,614,,images/1 (2359).jpg,B,B,,25,25,0,,673ccb0691efe91cd015dcf7,,,initialTest_response,8,8,0,184,1710420,,28.54,1VaYYzImvA2kPJqU5NiF,590,image-keyboard-response,1,1,0,"current target, not in next trial",,,,1920
,,,,,,2,r,,,,,,,3,,,,,1200,673ccb0691efe91cd015dcf7,,0.0-5.0-7.0-0.0,0,,,0,,,,,,,,,,,,,,,,,,,,,,,,<p background:white>CORRECT!</p>,,,,,,,,673ccb0691efe91cd015dcf7,,,promptfeedback,,,,,350867,,5.88,1dz5oxRsADdUOjK50hN1,48,html-keyboard-response,,,,,,,,1920
,,,False,,,2,r,,,,,,T_target,3,,,,,1200,673ccb0691efe91cd015dcf7,1 (1650).jpg,0.0-13.0-2.0-0.17,0,False,True,0,,True,True,False,True,True,False,9,9,0,,0,,,1,,,,,,,,,images/1 (1650).jpg,B,B,,18,18,0,,673ccb0691efe91cd015dcf7,,,initial_study,19,19,0,0,1769289,,29.53,1eqW7bMScYygrzSgmrT4,632,image-keyboard-response,1,1,0,"current target, not in next trial",,,,1920
,,,False,,,2,r,,,,,,T_target,3,,,,,1200,673ccb0691efe91cd015dcf7,1 (96).jpg,0.0-5.0-2.0-0.14,0,True,True,0,,True,True,False,True,True,False,1,1,0,1,0,,,1,,,,,,,,,images/1 (96).jpg,B,B,,15,15,0,,673ccb0691efe91cd015dcf7,,,initial_study,9,9,0,7,285755,,4.80,1kdq5yMBVOedspXVpI2y,21,image-keyboard-response,1,1,0,"current target, not in next trial",,,,1920
,,,,,,2,r,,,,,,,3,,,,,1200,673ccb0691efe91cd015dcf7,,0.0-14.0-3.0-0.0,0,,,0,,,,,,,,,,,,,,,,,,,,,,,,Summing up the digits as they appear,,,,,,,,673ccb0691efe91cd015dcf7,,,prompt,,,,,1925984,,32.14,1kiqSo1TQLd55THIiOp4,721,html-keyboard-response,,,,,,,,1920
,0.6774193548387096,,,,,2,r,True,,,,j,T_nontarget,3,,,,,1200,673ccb0691efe91cd015dcf7,1 (1949).jpg,0.0-16.0-1.0-0.30,0,True,,0,True,,True,False,,False,False,,3,0,1,0,,,,,,,1,j,,711,,images/1 (1949).jpg,,A,,,5,0,,673ccb0691efe91cd015dcf7,,,finalTest,,0,0,31,2121802,,35.40,1lKobXl2RCSE5Zfu4Ylg,796,image-keyboard-response,,,,"studied only, not in trial",,,,1920
,0.5539714867617109,,,,,2,r,False,,,,f,F,3,,,,,1200,673ccb0691efe91cd015dcf7,1 (283).jpg,0.0-25.0-1.0-0.46,0,True,,0,False,,False,False,,False,False,,0,0,10,0,,,1,,,,0,j,,542,,images/1 (283).jpg,,FF,,,0,0,,673ccb0691efe91cd015dcf7,,,finalTest,,0,0,491,2568522,,42.85,1ldw5XlDO5PiIW6GPMZu,1256,image-keyboard-response,,,,final Foil,,,,1920
,,,,,,2,r,,,,,,,3,,,,,1200,673ccb0691efe91cd015dcf7,,0.0-8.0-4.0-0.0,0,,,0,,,,,,,,,,,,,,,,,,,,,,,,"<div style=""font-size:60px;"">+</div>",,,,,,,,673ccb0691efe91cd015dcf7,,,fixation,,,,,1108494,,18.51,1nKCsi53LK3QFkBXmBON,266,html-keyboard-response,,,,,,,,1920
,0.5810276679841901,,,,,2,r,False,,False,,j,T_nontarget,3,,,,,1200,673ccb0691efe91cd015dcf7,1 (1035).jpg,0.0-21.0-1.0-0.0,0,True,,0,True,,True,False,,False,True,,4,5,6,0,,,,,,,0,,,,,images/1 (1035).jpg,,Cn,,,20,0,,673ccb0691efe91cd015dcf7,,,finalTest,,0,11,253,2344008,,39.10,1oROQunwXHcgSdLmE8Dx,1018,image-keyboard-response,,,,"studied only, in next trial",,,,1920
,,,False,,,2,r,,,,,,T_target,3,,,,,1200,673ccb0691efe91cd015dcf7,1 (544).jpg,0.0-7.0-2.0-0.24,0,True,True,0,,True,True,False,True,True,False,3,3,0,1,0,,,1,,,,,,,,,images/1 (544).jpg,B,B,,25,25,0,,673ccb0691efe91cd015dcf7,,,initial_study,17,17,0,56,962527,,16.08,1p83O2z6VTdCzYuSdLyr,183,image-keyboard-response,1,1,0,"current target, not in next trial",,,,1920
,0.5966386554621849,,,,,2,r,False,,,,f,F,3,,,,,1200,673ccb0691efe91cd015dcf7,1 (789).jpg,0.0-18.0-1.0-0.10,0,True,,0,False,,False,False,,False,False,,0,0,3,3,,,1,,,,0,j,,305,,images/1 (789).jpg,,FF,,,0,0,,673ccb0691efe91cd015dcf7,,,finalTest,,0,0,119,2221232,,37.06,1s8I1QlKL1jIzt5eLU9u,884,image-keyboard-response,,,,final Foil,,,,1920
,1,,False,,,2,r,True,True,,,j,T_target,3,,,,,1200,673ccb0691efe91cd015dcf7,1 (54).jpg,0.0-11.0-10.0-0.0,0,False,True,0,False,True,True,False,True,True,False,7,7,False,,0,,,1,,,,1,j,,966,,images/1 (54).jpg,B,B,,27,27,0,,673ccb0691efe91cd015dcf7,,,initialTest_response,1,1,0,0,1577460,,26.33,1uF0M4PQ4ns6Y9S9ymsV,507,image-keyboard-response,1,1,0,"current target, not in next trial",,,,1920
,0.6666666666666669,,,,,2,r,True,,,,j,T_target,3,,,,,1200,673ccb0691efe91cd015dcf7,1 (1078).jpg,0.0-16.0-1.0-0.41,0,True,,0,True,,True,False,,True,False,,3,0,1,0,,,,,,,1,j,,569,,images/1 (1078).jpg,,B,,,17,0,,673ccb0691efe91cd015dcf7,,,finalTest,,25,0,42,2132257,,35.57,1x9nsCpt8DkFl1NyOd4Z,807,image-keyboard-response,,,,"current target, not in next trial",,,,1920
,,,False,,,2,r,,,,,,T_target,3,,,,,1200,673ccb0691efe91cd015dcf7,1 (1000).jpg,0.0-7.0-2.0-0.18,0,False,True,0,,True,True,False,True,True,False,3,3,0,,0,,,1,,,,,,,,,images/1 (1000).jpg,B,B,,19,19,0,,673ccb0691efe91cd015dcf7,,,initial_study,10,10,0,0,949790,,15.87,1zbxDkRR4T2761YtMZLU,177,image-keyboard-response,1,1,0,"current target, not in next trial",,,,1920
,0.7,,True,,,2,r,True,True,,,j,T_target,3,,,,,1200,673ccb0691efe91cd015dcf7,1 (669).jpg,0.0-6.0-10.0-0.19,0,False,True,0,False,True,True,False,True,True,True,2,2,3,,0,,,1,,,,1,j,,742,,images/1 (669).jpg,Dn+1,Dn,,1,1,0,,673ccb0691efe91cd015dcf7,,,initialTest_response,20,20,18,0,861994,,14.40,28XlzClzu1oyU9xYNCFF,146,image-keyboard-response,1,1,1,"current target, in next trial",,,,1920
,0.5602536997885836,,,,,2,r,False,,,,f,F,3,,,,,1200,673ccb0691efe91cd015dcf7,1 (763).jpg,0.0-25.0-1.0-0.28,0,True,,0,False,,False,False,,False,False,,0,0,10,2,,,1,,,,0,j,,393,,images/1 (763).jpg,,FF,,,0,0,,673ccb0691efe91cd015dcf7,,,finalTest,,0,0,473,2556259,,42.64,29oLpQQh0IuW0A6aeYQw,1238,image-keyboard-response,,,,final Foil,,,,1920
,0.5587628865979383,,,,,2,r,True,,,,j,T_target,3,,,,,1200,673ccb0691efe91cd015dcf7,1 (2249).jpg,0.0-25.0-1.0-0.40,0,True,,0,True,,True,False,,True,False,,4,0,10,0,,,,,,,1,j,,334,,images/1 (2249).jpg,,B,,,23,0,,673ccb0691efe91cd015dcf7,,,finalTest,,16,0,485,2564547,,42.78,2C050gkaQcMxyi3Hmhhn,1250,image-keyboard-response,,,,"current target, not in next trial",,,,1920
,,,False,,,2,r,,,,,,T_target,3,,,,,1200,673ccb0691efe91cd015dcf7,1 (1957).jpg,0.0-9.0-2.0-0.16,0,True,True,0,,True,True,False,True,True,False,5,5,0,6,0,,,1,,,,,,,,,images/1 (1957).jpg,B,B,,17,17,0,,673ccb0691efe91cd015dcf7,,,initial_study,8,8,0,276,1238641,,20.68,2GiYgFhBCMwaqMwnU93j,327,image-keyboard-response,1,1,0,"current target, not in next trial",,,,1920
,0.5839598997493739,,,,,2,r,False,,,,f,F,3,,,,,1200,673ccb0691efe91cd015dcf7,1 (1745).jpg,0.0-24.0-1.0-0.2,0,True,,0,False,,False,False,,False,False,,0,0,9,0,,,1,,,,0,j,,650,,images/1 (1745).jpg,,FF,,,0,0,,673ccb0691efe91cd015dcf7,,,finalTest,,0,0,399,2494040,,41.60,2MHn3lshm8GAIqqfsIDk,1164,image-keyboard-response,,,,final Foil,,,,1920
,0.6190476190476191,,False,,,2,r,True,True,,,j,T_target,3,,,,,1200,673ccb0691efe91cd015dcf7,1 (2083).jpg,0.0-13.0-10.0-0.20,0,True,True,0,False,True,True,False,True,True,False,9,9,False,,0,,,1,,,,1,j,,694,,images/1 (2083).jpg,B,B,,10,10,0,,673ccb0691efe91cd015dcf7,,,initialTest_response,21,21,0,126,1849669,,30.86,2PvZXraQWH1Wju7Lud6g,679,image-keyboard-response,1,1,0,"current target, not in next trial",,,,1920
,0.5871212121212126,,,,,2,r,True,,,,f,F,3,,,,,1200,673ccb0691efe91cd015dcf7,1 (101).jpg,0.0-21.0-1.0-0.11,0,True,,0,False,,False,False,,False,False,,0,0,6,4,,,1,,,,1,f,,503,,images/1 (101).jpg,,FF,,,0,0,,673ccb0691efe91cd015dcf7,,,finalTest,,0,0,264,2354495,,39.28,2R6x0YyqadI6TUSIb8UK,1029,image-keyboard-response,,,,final Foil,,,,1920
,,,False,,,2,r,,,,,,T_nontarget,3,,,,,1200,673ccb0691efe91cd015dcf7,1 (541).jpg,0.0-8.0-2.0-0.20,0,True,True,0,,True,True,False,False,False,False,4,4,0,1,0,,,1,,,,,,,,,images/1 (541).jpg,A,A,,21,21,0,,673ccb0691efe91cd015dcf7,,,initial_study,0,0,0,46,1086177,,18.14,2T7Qv4DTz3SuMTi7f3Qq,255,image-keyboard-response,1,0,0,"studied only, not in trial",,,,1920
,0.5714285714285714,,False,,,2,r,True,True,,,j,T_target,3,,,,,1200,673ccb0691efe91cd015dcf7,1 (1470).jpg,0.0-13.0-10.0-0.13,0,False,True,0,False,True,True,False,True,True,False,9,9,False,,0,,,1,,,,1,j,,560,,images/1 (1470).jpg,B,B,,1,1,0,,673ccb0691efe91cd015dcf7,,,initialTest_response,14,14,0,0,1843251,,30.76,2ZY9GlKzxd9nvcGfbPsb,672,image-keyboard-response,1,1,0,"current target, not in next trial",,,,1920
,0.6261682242990654,,,,,2,r,True,,,,f,F,3,,,,,1200,673ccb0691efe91cd015dcf7,1 (1345).jpg,0.0-17.0-1.0-0.46,0,True,,0,False,,False,False,,False,False,,0,0,2,7,,,1,,,,1,f,,1057,,images/1 (1345).jpg,,FF,,,0,0,,673ccb0691efe91cd015dcf7,,,finalTest,,0,0,107,2213327,,36.93,2eXlbeAIKM2yJTvuAEC1,872,image-keyboard-response,,,,final Foil,,,,1920
,,,,,,2,r,True,,,53,,,3,,,,,1200,673ccb0691efe91cd015dcf7,,0.0-13.0-6.0-0.0-0.0,0,,,0,,,,,,,,,,,,,,,,,,,,{'Q0': '53'},53,3200,,,,,,,,,,673ccb0691efe91cd015dcf7,,,answer_counting,,,,,1825292,,30.46,2fRrnszI0H22ZUaOPYYv,655,survey-text,,,,,,,,1920
,0.55,,True,,,2,r,False,False,False,,f,T_foil,3,,,,,1200,673ccb0691efe91cd015dcf7,1 (1996).jpg,0.0-8.0-10.0-0.19,0,True,False,0,False,False,True,False,True,True,True,4,3,4,,0,,,2,,,,0,j,,713,,images/1 (1996).jpg,Dn,Dn,,0,13,0,,673ccb0691efe91cd015dcf7,,,initialTest_response,20,13,20,117,1159126,,19.36,2ffPO7eFrhrQDWLwNwcU,298,image-keyboard-response,1,1,1,"current target, in next trial, from last trial",,,,1920
,0.5954692556634309,,,,,2,r,True,,,,j,T_target,3,,,,,1200,673ccb0691efe91cd015dcf7,1 (220).jpg,0.0-22.0-1.0-0.8,0,True,,0,True,,True,False,,True,False,,10,0,7,0,,,,,,,1,j,,594,,images/1 (220).jpg,,B,,,5,0,,673ccb0691efe91cd015dcf7,,,finalTest,,8,0,309,2399370,,40.03,2kNcwXUZb44pdBqcZSqs,1074,image-keyboard-response,,,,"current target, not in next trial",,,,1920
,0.5564681724845997,,,,,2,r,False,,,,f,F,3,,,,,1200,673ccb0691efe91cd015dcf7,1 (1264).jpg,0.0-25.0-1.0-0.42,0,True,,0,False,,False,False,,False,False,,0,0,10,10,,,1,,,,0,j,,614,,images/1 (1264).jpg,,FF,,,0,0,,673ccb0691efe91cd015dcf7,,,finalTest,,0,0,487,2565811,,42.80,2o8zKJYPoB7Xtu6f8eSm,1252,image-keyboard-response,,,,final Foil,,,,1920
,1,,True,,,2,r,True,True,,,j,T_target,3,,,,,1200,673ccb0691efe91cd015dcf7,1 (925).jpg,0.0-13.0-10.0-0.0,0,True,True,0,False,True,True,False,True,True,True,9,9,10,,0,,,1,,,,1,j,,1265,,images/1 (925).jpg,Dn+1,Dn,,17,17,0,,673ccb0691efe91cd015dcf7,,,initialTest_response,1,1,16,301,1832294,,30.58,2qStcJEwOH242qgA5UjF,659,image-keyboard-response,1,1,1,"current target, in next trial",,,,1920
,0,,False,,,2,r,False,False,,,j,T_target,3,,,,,1200,673ccb0691efe91cd015dcf7,1 (602).jpg,0.0-6.0-10.0-0.1,0,False,True,0,False,True,True,False,True,True,False,2,2,False,,0,,,1,,,,0,,,,,images/1 (602).jpg,B,B,,7,7,0,,673ccb0691efe91cd015dcf7,,,initialTest_response,2,2,0,0,846016,,14.14,2suTiErgPqM4nK3orSVU,128,image-keyboard-response,1,1,0,"current target, not in next trial",,,,1920
,0.564551422319475,,,,,2,r,False,,,,f,F,3,,,,,1200,673ccb0691efe91cd015dcf7,1 (1107).jpg,0.0-25.0-1.0-0.12,0,True,,0,False,,False,False,,False,False,,0,0,10,9,,,1,,,,0,j,,1144,,images/1 (1107).jpg,,FF,,,0,0,,673ccb0691efe91cd015dcf7,,,finalTest,,0,0,457,2543293,,42.43,31JcfSzQ2hpvx2sWHukO,1222,image-keyboard-response,,,,final Foil,,,,1920
,0.5910543130990419,,,,,2,r,False,,,,f,F,3,,,,,1200,673ccb0691efe91cd015dcf7,1 (2339).jpg,0.0-22.0-1.0-0.12,0,True,,0,False,,False,False,,False,False,,0,0,7,10,,,1,,,,0,j,,1070,,images/1 (2339).jpg,,FF,,,0,0,,673ccb0691efe91cd015dcf7,,,finalTest,,0,0,313,2403172,,40.09,349GzuIBmSiKdwiXfaak,1078,image-keyboard-response,,,,final Foil,,,,1920
,0.6666666666666666,,False,,,2,r,True,True,,,j,T_target,3,,,,,1200,673ccb0691efe91cd015dcf7,1 (484).jpg,0.0-5.0-10.0-0.26,0,False,True,0,False,True,True,False,True,True,False,1,1,False,,0,,,1,,,,1,j,,733,,images/1 (484).jpg,B,B,,26,26,0,,673ccb0691efe91cd015dcf7,,,initialTest_response,27,27,0,0,384479,,6.45,34AOHo4hIBUMrXolaaI5,77,image-keyboard-response,1,1,0,"current target, not in next trial",,,,1920
,0.5950704225352117,,,,,2,r,True,,,,j,T_target,3,,,,,1200,673ccb0691efe91cd015dcf7,1 (2161).jpg,0.0-21.0-1.0-0.31,0,True,,0,True,,True,False,,True,False,,6,0,6,0,,,,,,,1,j,,514,,images/1 (2161).jpg,,B,,,27,0,,673ccb0691efe91cd015dcf7,,,finalTest,,27,0,284,2368823,,39.52,35Cp8CVzybgbe8ZUVRIB,1049,image-keyboard-response,,,,"current target, not in next trial",,,,1920
,,,False,,,2,r,,,,,,T_nontarget,3,,,,,1200,673ccb0691efe91cd015dcf7,1 (481).jpg,0.0-14.0-2.0-0.10,0,True,True,0,,True,True,False,False,False,False,10,10,0,1,0,,,1,,,,,,,,,images/1 (481).jpg,A,A,,11,11,0,,673ccb0691efe91cd015dcf7,,,initial_study,0,0,0,59,1883602,,31.43,35xFDB62s1h0NernkjPq,701,image-keyboard-response,1,0,0,"studied only, not in trial",,,,1920
,,,,,,2,r,,,,,,,3,,,,,1200,673ccb0691efe91cd015dcf7,,0.0-6.0-3.0-0.0,0,,,0,,,,,,,,,,,,,,,,,,,,,,,,Summing up the digits as they appear,,,,,,,,673ccb0691efe91cd015dcf7,,,prompt,,,,,802193,,13.41,37831pEl4HZJZ5ImXVCT,113,html-keyboard-response,,,,,,,,1920
,0.6875,,False,,,2,r,True,True,,,j,T_target,3,,,,,1200,673ccb0691efe91cd015dcf7,1 (346).jpg,0.0-6.0-10.0-0.15,0,True,True,0,False,True,True,False,True,True,False,2,2,False,,0,,,1,,,,1,j,,513,,images/1 (346).jpg,B,B,,5,5,0,,673ccb0691efe91cd015dcf7,,,initialTest_response,16,16,0,171,858466,,14.34,37dXcdRcKvSmYKq937b4,142,image-keyboard-response,1,1,0,"current target, not in next trial",,,,1920
,,,,,,2,r,,,,,,,3,,,,,1200,673ccb0691efe91cd015dcf7,,0.0-8.0-9.0-0.0,0,,,0,,,,,,,,,,,,,,,,,,,,,,,,"<div style=""font-size:60px;"">+</div>",,,,,,,,673ccb0691efe91cd015dcf7,,,fixation,,,,,1141496,,19.06,39nv5vZCpEFu1Cxa0TvJ,278,html-keyboard-response,,,,,,,,1920
,0.5823529411764707,,,,,2,r,True,,,,j,T_target,3,,,,,1200,673ccb0691efe91cd015dcf7,1 (712).jpg,0.0-19.0-1.0-0.13,0,True,,0,True,,True,False,,True,False,,1,0,4,0,,,,,,,1,j,,737,,images/1 (712).jpg,,B,,,6,0,,673ccb0691efe91cd015dcf7,,,finalTest,,11,0,170,2263025,,37.75,39pXgxrF5Emz1B43lFb2,935,image-keyboard-response,,,,"current target, not in next trial",,,,1920
,0.5574112734864302,,,,,2,r,True,,,,f,F,3,,,,,1200,673ccb0691efe91cd015dcf7,1 (746).jpg,0.0-25.0-1.0-0.34,0,True,,0,False,,False,False,,False,False,,0,0,10,5,,,1,,,,1,f,,412,,images/1 (746).jpg,,FF,,,0,0,,673ccb0691efe91cd015dcf7,,,finalTest,,0,0,479,2560728,,42.72,3B7I0mn2EFwhodDhFptN,1244,image-keyboard-response,,,,final Foil,,,,1920
,0.5893416927899691,,,,,2,r,True,,,,j,T_foil,3,,,,,1200,673ccb0691efe91cd015dcf7,1 (1864).jpg,0.0-22.0-1.0-0.18,0,True,,0,True,,False,False,,True,False,,2,False,7,2,,,,,,,1,j,,1275,,images/1 (1864).jpg,,Fn,,,0,0,,673ccb0691efe91cd015dcf7,,,finalTest,,28,0,319,2412104,,40.24,3C9PViuwRhD57LBOG2iz,1084,image-keyboard-response,,,,"tested only, not in next trial",,,,1920
,0.5645161290322583,,,,,2,r,False,,,,j,T_target,3,,,,,1200,673ccb0691efe91cd015dcf7,1 (459).jpg,0.0-24.0-1.0-0.37,0,True,,0,True,,True,False,,True,False,,5,0,9,0,,,,,,,0,f,,369,,images/1 (459).jpg,,B,,,4,0,,673ccb0691efe91cd015dcf7,,,finalTest,,3,0,434,2524519,,42.11,3Dckl1ZPWz68Oem6J1LC,1199,image-keyboard-response,,,,"current target, not in next trial",,,,1920
,0.5886524822695035,,,,,2,r,False,,,,f,F,3,,,,,1200,673ccb0691efe91cd015dcf7,1 (664).jpg,0.0-18.0-1.0-0.32,0,True,,0,False,,False,False,,False,False,,0,0,3,3,,,1,,,,0,j,,543,,images/1 (664).jpg,,FF,,,0,0,,673ccb0691efe91cd015dcf7,,,finalTest,,0,0,141,2236602,,37.31,3EbB40Jc8D3bgwNo0TxK,906,image-keyboard-response,,,,final Foil,,,,1920
,0.6,,,,,2,r,False,,,,f,F,3,,,,,1200,673ccb0691efe91cd015dcf7,1 (208).jpg,0.0-16.0-1.0-0.4,0,True,,0,False,,False,False,,False,False,,0,0,1,1,,,1,,,,0,j,,1192,,images/1 (208).jpg,,FF,,,0,0,,673ccb0691efe91cd015dcf7,,,finalTest,,0,0,5,2095950,,34.97,3Exew88FaCxMGlkL1Ccv,770,image-keyboard-response,,,,final Foil,,,,1920
,0.6031746031746031,,,,,2,r,True,,,,j,T_target,3,,,,,1200,673ccb0691efe91cd015dcf7,1 (2083).jpg,0.0-18.0-1.0-0.17,0,True,,0,True,,True,False,,True,False,,9,0,3,0,,,,,,,1,j,,497,,images/1 (2083).jpg,,B,,,10,0,,673ccb0691efe91cd015dcf7,,,finalTest,,21,0,126,2226116,,37.14,3GErUnWRFKdhuT1XET4L,891,image-keyboard-response,,,,"current target, not in next trial",,,,1920
,,,False,,,2,r,,,,,,T_target,3,,,,,1200,673ccb0691efe91cd015dcf7,1 (1734).jpg,0.0-5.0-2.0-0.8,0,False,True,0,,True,True,False,True,True,False,1,1,0,,0,,,1,,,,,,,,,images/1 (1734).jpg,B,B,,9,9,0,,673ccb0691efe91cd015dcf7,,,initial_study,20,20,0,0,273033,,4.59,3JJGrq9jcnAtGItTXsKd,15,image-keyboard-response,1,1,0,"current target, not in next trial",,,,1920
,,,,,,2,r,,,,,,,3,,,,,1200,673ccb0691efe91cd015dcf7,,0.0-13.0-0.0-0.0,0,,,0,,,,,,,,,,,,,,,,,,,,enter,,1426,,"
    <p style='text-align: justify;color: black;background: white;font: caption-;''>
        Press the 'enter' key to see the next list of pictures. </p>
    ",,,,,,,,673ccb0691efe91cd015dcf7,,,,,,,,1730147,,28.87,3K8bKQF7nAb8krnzMEsF,613,html-keyboard-response,,,,,,,,1920
,0.6428571428571429,,,,,2,r,True,,,,j,T_nontarget,3,,,,,1200,673ccb0691efe91cd015dcf7,1 (1694).jpg,0.0-16.0-1.0-0.13,0,True,,0,True,,True,False,,False,False,,6,0,1,0,,,,,,,1,j,,960,,images/1 (1694).jpg,,A,,,10,0,,673ccb0691efe91cd015dcf7,,,finalTest,,0,0,14,2105901,,35.14,3NquoYNjACyG8mE0VpPG,779,image-keyboard-response,,,,"studied only, not in trial",,,,1920
,0.5874999999999999,,,,,2,r,False,,True,,j,T_nontarget,3,,,,,1200,673ccb0691efe91cd015dcf7,1 (187).jpg,0.0-19.0-1.0-0.3,0,True,,0,True,,True,False,,False,True,,4,5,4,0,,,,,,,0,f,,1244,,images/1 (187).jpg,,Cn,,,22,0,,673ccb0691efe91cd015dcf7,,,finalTest,,0,24,160,2253268,,37.59,3Yqn8EBX5WEIR5WShGiD,925,image-keyboard-response,,,,"studied only, in next trial",,,,1920
,0.63,,,,,2,r,False,,,,f,F,3,,,,,1200,673ccb0691efe91cd015dcf7,1 (1330).jpg,0.0-17.0-1.0-0.39,0,True,,0,False,,False,False,,False,False,,0,0,2,7,,,1,,,,0,j,,1438,,images/1 (1330).jpg,,FF,,,0,0,,673ccb0691efe91cd015dcf7,,,finalTest,,0,0,100,2204799,,36.78,3dHOj6peYkOx8j7664yl,865,image-keyboard-response,,,,final Foil,,,,1920
,0.6249999999999999,,False,,,2,r,False,False,,,f,T_foil,3,,,,,1200,673ccb0691efe91cd015dcf7,1 (1788).jpg,0.0-6.0-10.0-0.23,0,True,True,0,False,False,False,False,True,True,False,2,2,False,8,0,,,1,,,,0,j,,893,,images/1 (1788).jpg,Fn+1,Fn,,0,0,0,,673ccb0691efe91cd015dcf7,,,initialTest_response,24,24,0,390,866029,,14.47,3dnPAaGdi5XDcEdkkmFj,150,image-keyboard-response,0,1,0,"tested only, not in next trial",,,,1920
,0.6483516483516484,,,,,2,r,True,,,,j,T_nontarget,3,,,,,1200,673ccb0691efe91cd015dcf7,1 (1459).jpg,0.0-17.0-1.0-0.30,0,True,,0,True,,True,False,,False,False,,7,0,2,0,,,,,,,1,j,,944,,images/1 (1459).jpg,,A,,,30,0,,673ccb0691efe91cd015dcf7,,,finalTest,,0,0,91,2197425,,36.66,3g33NiBCnJqYrQmsUbvT,856,image-keyboard-response,,,,"studied only, not in trial",,,,1920
,,,False,,,2,r,,,,,,T_target,3,,,,,1200,673ccb0691efe91cd015dcf7,1 (1954).jpg,0.0-12.0-2.0-0.6,0,False,True,0,,True,True,False,True,True,False,8,8,0,,0,,,1,,,,,,,,,images/1 (1954).jpg,B,B,,7,7,0,,673ccb0691efe91cd015dcf7,,,initial_study,18,18,0,0,1618069,,27.00,3gpXeUmAe4lz8eR1H4Wb,545,image-keyboard-response,1,1,0,"current target, not in next trial",,,,1920
,0.6027397260273972,,,,,2,r,True,,,,j,T_target,3,,,,,1200,673ccb0691efe91cd015dcf7,1 (797).jpg,0.0-18.0-1.0-0.37,0,True,,0,True,,True,False,,True,False,,8,0,3,0,,,,,,,1,j,,817,,images/1 (797).jpg,,B,,,24,0,,673ccb0691efe91cd015dcf7,,,finalTest,,12,0,146,2240924,,37.39,3iCcpB6jy409NtxWnujJ,911,image-keyboard-response,,,,"current target, not in next trial",,,,1920
,,,False,,,2,r,,,,,,T_nontarget,3,,,,,1200,673ccb0691efe91cd015dcf7,1 (965).jpg,0.0-8.0-2.0-0.10,0,True,True,0,,True,True,False,False,False,False,4,4,0,2,0,,,1,,,,,,,,,images/1 (965).jpg,A,A,,11,11,0,,673ccb0691efe91cd015dcf7,,,initial_study,0,0,0,90,1064950,,17.79,3phIwbWMZuiIFrbiJXGs,245,image-keyboard-response,1,0,0,"studied only, not in trial",,,,1920
,0.6428571428571429,,True,,,2,r,True,False,True,,f,T_foil,3,,,,,1200,673ccb0691efe91cd015dcf7,1 (2066).jpg,0.0-13.0-10.0-0.27,0,False,False,0,False,False,False,False,True,False,True,9,8,9,,0,,,2,,,,1,f,,783,,images/1 (2066).jpg,Fnn,Fnn,,0,0,0,,673ccb0691efe91cd015dcf7,,,initialTest_response,28,0,28,0,1855990,,30.97,3z59rRvoo37zJ9U1dDrb,686,image-keyboard-response,0,1,1,"tested only, in next trial, from last trial",,,,1920
,,,False,,,2,r,,,,,,T_nontarget,3,,,,,1200,673ccb0691efe91cd015dcf7,1 (2371).jpg,0.0-5.0-2.0-0.28,0,True,True,0,,True,True,False,False,False,False,1,1,0,10,0,,,1,,,,,,,,,images/1 (2371).jpg,A,A,,29,29,0,,673ccb0691efe91cd015dcf7,,,initial_study,0,0,0,483,315435,,5.29,427CcvgVPUOE7Wgp7ac7,35,image-keyboard-response,1,0,0,"studied only, not in trial",,,,1920
,,,True,,,2,r,,,,,,T_nontarget,3,,,,,1200,673ccb0691efe91cd015dcf7,1 (1133).jpg,0.0-13.0-2.0-0.10,0,False,True,0,,True,True,False,False,False,True,9,9,10,,0,,,1,,,,,,,,,images/1 (1133).jpg,Cn+1,Cn,,11,11,0,,673ccb0691efe91cd015dcf7,,,initial_study,0,0,10,0,1754463,,29.28,453Vr0mm95S17FlDQ3B2,625,image-keyboard-response,1,0,1,"studied only, in next trial",,,,1920
,0.625,,False,,,2,r,False,False,,,j,T_target,3,,,,,1200,673ccb0691efe91cd015dcf7,1 (209).jpg,0.0-5.0-10.0-0.23,0,False,True,0,False,True,True,False,True,True,False,1,1,False,,0,,,1,,,,0,f,,688,,images/1 (209).jpg,B,B,,14,14,0,,673ccb0691efe91cd015dcf7,,,initialTest_response,24,24,0,0,382102,,6.41,462hGtl6rdAW8LGu9s48,74,image-keyboard-response,1,1,0,"current target, not in next trial",,,,1920
,0.5,,True,,,2,r,False,False,,,j,T_target,3,,,,,1200,673ccb0691efe91cd015dcf7,1 (1113).jpg,0.0-9.0-10.0-0.5,0,True,True,0,False,True,True,False,True,True,True,5,5,6,,0,,,1,,,,0,f,,768,,images/1 (1113).jpg,Dn+1,Dn,,3,3,0,,673ccb0691efe91cd015dcf7,,,initialTest_response,6,6,6,270,1315427,,21.96,48caUEKnQXHPKJZnwltr,360,image-keyboard-response,1,1,1,"current target, in next trial",,,,1920
,0.6875,,,,,2,r,True,,,,f,F,3,,,,,1200,673ccb0691efe91cd015dcf7,1 (1474).jpg,0.0-16.0-1.0-0.47,0,True,,0,False,,False,False,,False,False,,0,0,1,10,,,1,,,,1,f,,851,,images/1 (1474).jpg,,FF,,,0,0,,673ccb0691efe91cd015dcf7,,,finalTest,,0,0,48,2137090,,35.66,4HDYw0Vn9mcxg4RD2OIv,813,image-keyboard-response,,,,final Foil,,,,1920
,0.6235294117647059,,,,,2,r,True,,,,f,F,3,,,,,1200,673ccb0691efe91cd015dcf7,1 (261).jpg,0.0-17.0-1.0-0.24,0,True,,0,False,,False,False,,False,False,,0,0,2,3,,,1,,,,1,f,,702,,images/1 (261).jpg,,FF,,,0,0,,673ccb0691efe91cd015dcf7,,,finalTest,,0,0,85,2188916,,36.52,4HwgYL2BVlqPk8Lw6Pz8,850,image-keyboard-response,,,,final Foil,,,,1920
,1,,False,,,2,r,True,True,,,j,T_target,3,,,,,1200,673ccb0691efe91cd015dcf7,1 (708).jpg,0.0-12.0-10.0-0.3,0,True,True,0,False,True,True,False,True,True,False,8,8,False,,0,,,1,,,,1,j,,729,,images/1 (708).jpg,B,B,,4,4,0,,673ccb0691efe91cd015dcf7,,,initialTest_response,4,4,0,421,1706987,,28.49,4Kfrj8oseJmKONjMcKXj,586,image-keyboard-response,1,1,0,"current target, not in next trial",,,,1920
,0.6265060240963856,,,,,2,r,False,,,,f,F,3,,,,,1200,673ccb0691efe91cd015dcf7,1 (107).jpg,0.0-17.0-1.0-0.22,0,True,,0,False,,False,False,,False,False,,0,0,2,0,,,1,,,,0,j,,774,,images/1 (107).jpg,,FF,,,0,0,,673ccb0691efe91cd015dcf7,,,finalTest,,0,0,83,2187202,,36.49,4NWGpxxfj2Md5TBEI8tl,848,image-keyboard-response,,,,final Foil,,,,1920
,0.6470588235294118,,True,,,2,r,False,,False,,f,T_foil,3,,,,,1200,673ccb0691efe91cd015dcf7,1 (1638).jpg,0.0-10.0-10.0-0.16,0,True,False,0,False,False,True,False,True,False,True,6,5,6,,0,,,2,,,,0,j,,762,,images/1 (1638).jpg,Cn,Cn,,0,25,0,,673ccb0691efe91cd015dcf7,,,initialTest_response,17,0,17,307,1459206,,24.36,4XhB2uneTwNU4WL1D3o5,447,image-keyboard-response,1,0,1,"studied only, in next trial, from last trial",,,,1920
,0.5907692307692312,,,,,2,r,True,True,False,,j,T_target,3,,,,,1200,673ccb0691efe91cd015dcf7,1 (2347).jpg,0.0-22.0-1.0-0.24,0,True,,0,True,,True,False,,True,True,,2,3,7,0,,,,,,,1,j,,693,,images/1 (2347).jpg,,Dn,,,6,0,,673ccb0691efe91cd015dcf7,,,finalTest,,21,14,325,2417906,,40.34,4ghGV5EEfsxJ2zI2hwko,1090,image-keyboard-response,,,,"current target, in next trial",,,,1920
,,,False,,,2,r,,,,,,T_nontarget,3,,,,,1200,673ccb0691efe91cd015dcf7,1 (1104).jpg,0.0-6.0-2.0-0.2,0,True,True,0,,True,True,False,False,False,False,2,2,0,2,0,,,1,,,,,,,,,images/1 (1104).jpg,A,A,,3,3,0,,673ccb0691efe91cd015dcf7,,,initial_study,0,0,0,97,742851,,12.42,4h3fcyAlOy6mLavbkv1m,85,image-keyboard-response,1,0,0,"studied only, not in trial",,,,1920
,0.5,,False,,,2,r,True,True,,,j,T_target,3,,,,,1200,673ccb0691efe91cd015dcf7,1 (401).jpg,0.0-9.0-10.0-0.1,0,False,True,0,False,True,True,False,True,True,False,5,5,False,,0,,,1,,,,1,j,,1726,,images/1 (401).jpg,B,B,,27,27,0,,673ccb0691efe91cd015dcf7,,,initialTest_response,2,2,0,0,1310447,,21.88,4lnGmVrOOvD2bvAhLApd,356,image-keyboard-response,1,1,0,"current target, not in next trial",,,,1920
,0.5936395759717319,,,,,2,r,True,,,,f,F,3,,,,,1200,673ccb0691efe91cd015dcf7,1 (487).jpg,0.0-21.0-1.0-0.30,0,True,,0,False,,False,False,,False,False,,0,0,6,10,,,1,,,,1,f,,691,,images/1 (487).jpg,,FF,,,0,0,,673ccb0691efe91cd015dcf7,,,finalTest,,0,0,283,2368199,,39.51,4qUQZaHZWAvrbaSli8ks,1048,image-keyboard-response,,,,final Foil,,,,1920
,0.6106194690265486,,,,,2,r,True,,,,f,F,3,,,,,1200,673ccb0691efe91cd015dcf7,1 (1418).jpg,0.0-18.0-1.0-0.4,0,True,,0,False,,False,False,,False,False,,0,0,3,10,,,1,,,,1,f,,561,,images/1 (1418).jpg,,FF,,,0,0,,673ccb0691efe91cd015dcf7,,,finalTest,,0,0,113,2217652,,37.00,4rodrAJrSUKzx57cEyfo,878,image-keyboard-response,,,,final Foil,,,,1920
,0.5827160493827166,,,,,2,r,False,,,,f,F,3,,,,,1200,673ccb0691efe91cd015dcf7,1 (1029).jpg,0.0-24.0-1.0-0.8,0,True,,0,False,,False,False,,False,False,,0,0,9,0,,,1,,,,0,j,,738,,images/1 (1029).jpg,,FF,,,0,0,,673ccb0691efe91cd015dcf7,,,finalTest,,0,0,405,2498947,,41.69,4t0IIDAK1CugJWUprNGG,1170,image-keyboard-response,,,,final Foil,,,,1920
,0.5,,False,,,2,r,False,False,,,j,T_target,3,,,,,1200,673ccb0691efe91cd015dcf7,1 (2298).jpg,0.0-8.0-10.0-0.25,0,True,True,0,False,True,True,False,True,True,False,4,4,False,,0,,,1,,,,0,f,,1251,,images/1 (2298).jpg,B,B,,18,18,0,,673ccb0691efe91cd015dcf7,,,initialTest_response,26,26,0,413,1166464,,19.48,52zqekEm28ry90J5s05e,304,image-keyboard-response,1,1,0,"current target, not in next trial",,,,1920
,,,False,,,2,r,,,,,,T_nontarget,3,,,,,1200,673ccb0691efe91cd015dcf7,1 (622).jpg,0.0-13.0-2.0-0.3,0,True,True,0,,True,True,False,False,False,False,9,9,0,8,0,,,1,,,,,,,,,images/1 (622).jpg,A,A,,4,4,0,,673ccb0691efe91cd015dcf7,,,initial_study,0,0,0,383,1739640,,29.03,56W5OyaB2JfzqSUMLjy3,618,image-keyboard-response,1,0,0,"studied only, not in trial",,,,1920
,0.8181818181818182,,False,,,2,r,True,True,,,f,T_foil,3,,,,,1200,673ccb0691efe91cd015dcf7,1 (40).jpg,0.0-7.0-10.0-0.10,0,True,True,0,False,False,False,False,True,True,False,3,3,False,7,0,,,1,,,,1,f,,802,,images/1 (40).jpg,Fn+1,Fn,,0,0,0,,673ccb0691efe91cd015dcf7,,,initialTest_response,11,11,0,342,1022418,,17.08,5AQU8gz2EHMCptO9IDfv,213,image-keyboard-response,0,1,0,"tested only, not in next trial",,,,1920
,,,False,,,2,r,,,,,,T_target,3,,,,,1200,673ccb0691efe91cd015dcf7,1 (1147).jpg,0.0-7.0-2.0-0.28,0,True,True,0,,True,True,False,True,True,False,3,3,0,9,0,,,1,,,,,,,,,images/1 (1147).jpg,B,B,,29,29,0,,673ccb0691efe91cd015dcf7,,,initial_study,7,7,0,439,970991,,16.22,5EHcPsesztVWLiN72Icr,187,image-keyboard-response,1,1,0,"current target, not in next trial",,,,1920
,0.52,,True,,,2,r,True,,True,,f,T_foil,3,,,,,1200,673ccb0691efe91cd015dcf7,1 (518).jpg,0.0-8.0-10.0-0.24,0,True,False,0,False,False,True,False,True,False,True,4,3,4,,0,,,2,,,,1,f,,1202,,images/1 (518).jpg,Cn,Cn,,0,26,0,,673ccb0691efe91cd015dcf7,,,initialTest_response,25,0,25,55,1165099,,19.46,5HARiMFahtGcvitPsuEV,303,image-keyboard-response,1,0,1,"studied only, in next trial, from last trial",,,,1920
,0.5567226890756304,,,,,2,r,False,,,,j,T_nontarget,3,,,,,1200,673ccb0691efe91cd015dcf7,1 (510).jpg,0.0-25.0-1.0-0.31,0,True,,0,True,,True,False,,False,False,,1,0,10,0,,,,,,,0,f,,561,,images/1 (510).jpg,,A,,,8,0,,673ccb0691efe91cd015dcf7,,,finalTest,,0,0,476,2558177,,42.67,5HXwZqtNPxPzv88GMDS4,1241,image-keyboard-response,,,,"studied only, not in trial",,,,1920
,0.5843137254901966,,,,,2,r,True,,,,j,T_nontarget,3,,,,,1200,673ccb0691efe91cd015dcf7,1 (657).jpg,0.0-21.0-1.0-0.2,0,True,,0,True,,True,False,,False,False,,10,0,6,0,,,,,,,1,j,,1267,,images/1 (657).jpg,,Cn,,,8,0,,673ccb0691efe91cd015dcf7,,,finalTest,,0,0,255,2348628,,39.18,5IcbNRVcBZtbfbwrD1D8,1020,image-keyboard-response,,,,"studied only, in next trial",,,,1920
,,,,,,2,r,,,,,,,3,,,,,1200,673ccb0691efe91cd015dcf7,,0.0-12.0-9.0-0.0,0,,,0,,,,,,,,,,,,,,,,,,,,,,,,"<div style=""font-size:60px;"">+</div>",,,,,,,,673ccb0691efe91cd015dcf7,,,fixation,,,,,1703337,,28.43,5PYHy3Yfc5rSUWqdlORZ,582,html-keyboard-response,,,,,,,,1920
,0.5717647058823535,,,,,2,r,False,,,,f,F,3,,,,,1200,673ccb0691efe91cd015dcf7,1 (744).jpg,0.0-24.0-1.0-0.28,0,True,,0,False,,False,False,,False,False,,0,0,9,5,,,1,,,,0,j,,829,,images/1 (744).jpg,,FF,,,0,0,,673ccb0691efe91cd015dcf7,,,finalTest,,0,0,425,2514899,,41.95,5RCBNOewHmfnjH6EoFfc,1190,image-keyboard-response,,,,final Foil,,,,1920
,0.5828220858895705,,,,,2,r,True,,,,j,T_nontarget,3,,,,,1200,673ccb0691efe91cd015dcf7,1 (1690).jpg,0.0-19.0-1.0-0.6,0,True,,0,True,,True,False,,False,False,,10,0,4,0,,,,,,,1,j,,608,,images/1 (1690).jpg,,Cn,,,25,0,,673ccb0691efe91cd015dcf7,,,finalTest,,0,0,163,2256513,,37.65,5TnAAHj8n3EDQfdRbtzd,928,image-keyboard-response,,,,"studied only, in next trial",,,,1920
,0.6014492753623188,,,,,2,r,False,,,,j,T_foil,3,,,,,1200,673ccb0691efe91cd015dcf7,1 (1288).jpg,0.0-18.0-1.0-0.29,0,True,,0,True,,False,False,,True,False,,9,False,3,9,,,,,,,0,f,,495,,images/1 (1288).jpg,,Fn,,,0,0,,673ccb0691efe91cd015dcf7,,,finalTest,,17,0,138,2234349,,37.28,5bN25gxLk1aEDMUhqL6p,903,image-keyboard-response,,,,"tested only, not in next trial",,,,1920
,1,,True,,,2,r,True,True,,,f,T_foil,3,,,,,1200,673ccb0691efe91cd015dcf7,1 (2124).jpg,0.0-7.0-10.0-0.2,0,False,True,0,False,False,False,False,True,True,True,3,3,4,,0,,,1,,,,1,f,,1212,,images/1 (2124).jpg,Fnn+1,Fnn,,0,0,0,,673ccb0691efe91cd015dcf7,,,initialTest_response,3,3,15,0,1014661,,16.95,5dS3TJ1QqF2AbrYMHTwc,205,image-keyboard-response,0,1,1,"tested only, in next trial",,,,1920
,0.6833333333333333,,,,,2,r,False,,,,j,T_nontarget,3,,,,,1200,673ccb0691efe91cd015dcf7,1 (2050).jpg,0.0-16.0-1.0-0.59,0,True,,0,True,,True,False,,False,False,,10,0,1,0,,,,,,,0,f,,2435,,images/1 (2050).jpg,,A,,,10,0,,673ccb0691efe91cd015dcf7,,,finalTest,,0,0,60,2164404,,36.11,5i6FQv4nU0VtpJBX0997,825,image-keyboard-response,,,,"studied only, not in trial",,,,1920
,0.6153846153846154,,False,,,2,r,False,False,,,f,T_foil,3,,,,,1200,673ccb0691efe91cd015dcf7,1 (1510).jpg,0.0-5.0-10.0-0.12,0,True,True,0,False,False,False,False,True,True,False,1,1,False,4,0,,,1,,,,0,j,,741,,images/1 (1510).jpg,Fn+1,Fn,,0,0,0,,673ccb0691efe91cd015dcf7,,,initialTest_response,13,13,0,199,372139,,6.24,5j41U5wh8Dte2nzto9yM,63,image-keyboard-response,0,1,0,"tested only, not in next trial",,,,1920
,,,True,,,2,r,,,,,,T_target,3,,,,,1200,673ccb0691efe91cd015dcf7,1 (669).jpg,0.0-6.0-2.0-0.0,0,False,True,0,,True,True,False,True,True,True,2,2,3,,0,,,1,,,,,,,,,images/1 (669).jpg,Dn+1,Dn,,1,1,0,,673ccb0691efe91cd015dcf7,,,initial_study,20,20,18,0,738609,,12.35,5kGOjpONHmYXHJXoZoHQ,83,image-keyboard-response,1,1,1,"current target, in next trial",,,,1920
,,,,,,2,r,,,,,,,3,,,,,1200,673ccb0691efe91cd015dcf7,,0.0-7.0-5.0-0.7,0,,,0,,,,,,,,3,,,,,,,,,8,,,,,,,7,,,7,,,,,673ccb0691efe91cd015dcf7,,54,digitPresentation,,,,,999485,,16.70,5lAfV9yx8mrid2TLOJa4,198,html-keyboard-response,,,,,,,,1920
,0.5633187772925765,,,,,2,r,False,,,,f,F,3,,,,,1200,673ccb0691efe91cd015dcf7,1 (85).jpg,0.0-25.0-1.0-0.13,0,True,,0,False,,False,False,,False,False,,0,0,10,10,,,1,,,,0,j,,957,,images/1 (85).jpg,,FF,,,0,0,,673ccb0691efe91cd015dcf7,,,finalTest,,0,0,458,2544358,,42.44,5mIqrHu2o5Jgfv1R6LmU,1223,image-keyboard-response,,,,final Foil,,,,1920
,0.5959595959595965,,,,,2,r,True,,,,j,T_nontarget,3,,,,,1200,673ccb0691efe91cd015dcf7,1 (1328).jpg,0.0-21.0-1.0-0.44,0,True,,0,True,,True,False,,False,False,,9,0,6,0,,,,,,,1,j,,1012,,images/1 (1328).jpg,,A,,,21,0,,673ccb0691efe91cd015dcf7,,,finalTest,,0,0,297,2381469,,39.73,5oTLaHC4F3yjibWVW8ky,1062,image-keyboard-response,,,,"studied only, not in trial",,,,1920
,0.6206896551724138,,False,,,2,r,False,False,,,j,T_target,3,,,,,1200,673ccb0691efe91cd015dcf7,1 (606).jpg,0.0-13.0-10.0-0.28,0,False,True,0,False,True,True,False,True,True,False,9,9,False,,0,,,1,,,,0,f,,858,,images/1 (606).jpg,B,B,,15,15,0,,673ccb0691efe91cd015dcf7,,,initialTest_response,29,29,0,0,1856965,,30.99,62UPyKLIEJL6Ycp2tRDl,687,image-keyboard-response,1,1,0,"current target, not in next trial",,,,1920
,,,,,,2,r,,,,,,,3,,,,,1200,673ccb0691efe91cd015dcf7,,0.0-10.0-5.0-0.0,0,,,0,,,,,,,,6,,,,,,,,,1,,,,,,,4,,,4,,,,,673ccb0691efe91cd015dcf7,,54,digitPresentation,,,,,1413231,,23.59,63yPxWVSkGQm7bJ8NujJ,419,html-keyboard-response,,,,,,,,1920
,,,True,,,2,r,,,,,,T_target,3,,,,,1200,673ccb0691efe91cd015dcf7,1 (1265).jpg,0.0-13.0-2.0-0.27,0,True,True,0,,True,True,False,True,True,True,9,9,10,3,0,,,1,,,,,,,,,images/1 (1265).jpg,Dn+1,Dn,,28,28,0,,673ccb0691efe91cd015dcf7,,,initial_study,20,20,20,144,1790471,,29.88,64xNc2V6ZlnQp267tJfB,642,image-keyboard-response,1,1,1,"current target, in next trial",,,,1920
,0.6857142857142857,,,,,2,r,True,,,,j,T_nontarget,3,,,,,1200,673ccb0691efe91cd015dcf7,1 (2145).jpg,0.0-16.0-1.0-0.34,0,True,,0,True,,True,False,,False,False,,9,0,1,0,,,,,,,1,j,,1019,,images/1 (2145).jpg,,A,,,25,0,,673ccb0691efe91cd015dcf7,,,finalTest,,0,0,35,2126185,,35.47,67A2SIqaLjqKccf4hAlD,800,image-keyboard-response,,,,"studied only, not in trial",,,,1920
,0.5,,True,,,2,r,False,False,,,j,T_target,3,,,,,1200,673ccb0691efe91cd015dcf7,1 (461).jpg,0.0-8.0-10.0-0.23,0,False,True,0,False,True,True,False,True,True,True,4,4,5,,0,,,1,,,,0,f,,634,,images/1 (461).jpg,Dn+1,Dn,,27,27,0,,673ccb0691efe91cd015dcf7,,,initialTest_response,24,24,19,0,1163778,,19.43,67dMPMHya6OjThLj3MfR,302,image-keyboard-response,1,1,1,"current target, in next trial",,,,1920
,0.5829959514170046,,,,,2,r,True,True,False,,j,T_foil,3,,,,,1200,673ccb0691efe91cd015dcf7,1 (1536).jpg,0.0-20.0-1.0-0.42,0,True,,0,True,,False,False,,True,True,,6,7,5,6,,,,,,,1,j,,623,,images/1 (1536).jpg,,Fnn,,,0,0,,673ccb0691efe91cd015dcf7,,,finalTest,,1,20,247,2334517,,38.95,68DYWzlePSr4Kxcyjgke,1012,image-keyboard-response,,,,"tested only, in next trial",,,,1920
,0.7222222222222222,,True,,,2,r,False,True,False,,f,T_foil,3,,,,,1200,673ccb0691efe91cd015dcf7,1 (669).jpg,0.0-7.0-10.0-0.17,0,False,False,0,False,False,True,False,True,True,True,3,2,3,,0,,,2,,,,0,j,,647,,images/1 (669).jpg,Dn,Dn,,0,1,0,,673ccb0691efe91cd015dcf7,,,initialTest_response,18,1,18,0,1028012,,17.17,68HwWld63jYumVToOG2A,220,image-keyboard-response,1,1,1,"current target, in next trial, from last trial",,,,1920
,0.8333333333333334,,False,,,2,r,False,False,,,j,T_target,3,,,,,1200,673ccb0691efe91cd015dcf7,1 (258).jpg,0.0-12.0-10.0-0.5,0,True,True,0,False,True,True,False,True,True,False,8,8,False,,0,,,1,,,,0,f,,642,,images/1 (258).jpg,B,B,,5,5,0,,673ccb0691efe91cd015dcf7,,,initialTest_response,6,6,0,185,1708619,,28.51,69maM5jvtmklgZz6Xyw2,588,image-keyboard-response,1,1,0,"current target, not in next trial",,,,1920
,0.6153846153846154,,True,,,2,r,False,True,False,,f,T_foil,3,,,,,1200,673ccb0691efe91cd015dcf7,1 (191).jpg,0.0-6.0-10.0-0.12,0,False,False,0,False,False,True,False,True,True,True,2,1,2,,0,,,2,,,,0,j,,336,,images/1 (191).jpg,Dn,Dn,,0,30,0,,673ccb0691efe91cd015dcf7,,,initialTest_response,13,30,13,0,856733,,14.32,6AOlvLmPGu14MpCwZvu5,139,image-keyboard-response,1,1,1,"current target, in next trial, from last trial",,,,1920
,0.5882352941176475,,,,,2,r,True,,,,f,F,3,,,,,1200,673ccb0691efe91cd015dcf7,1 (1617).jpg,0.0-20.0-1.0-0.16,0,True,,0,False,,False,False,,False,False,,0,0,5,8,,,1,,,,1,f,,1063,,images/1 (1617).jpg,,FF,,,0,0,,673ccb0691efe91cd015dcf7,,,finalTest,,0,0,221,2314711,,38.62,6B4Vx1zdHVL6j8XTMDFh,986,image-keyboard-response,,,,final Foil,,,,1920
,,,False,,,2,r,,,,,,T_target,3,,,,,1200,673ccb0691efe91cd015dcf7,1 (863).jpg,0.0-6.0-2.0-0.20,0,False,True,0,,True,True,False,True,True,False,2,2,0,,0,,,1,,,,,,,,,images/1 (863).jpg,B,B,,21,21,0,,673ccb0691efe91cd015dcf7,,,initial_study,5,5,0,0,780972,,13.05,6CA3rvuMY9ZNt8xSGuHm,103,image-keyboard-response,1,1,0,"current target, not in next trial",,,,1920
,0.5798816568047339,,,,,2,r,False,,,,f,F,3,,,,,1200,673ccb0691efe91cd015dcf7,1 (174).jpg,0.0-19.0-1.0-0.12,0,True,,0,False,,False,False,,False,False,,0,0,4,9,,,1,,,,0,j,,978,,images/1 (174).jpg,,FF,,,0,0,,673ccb0691efe91cd015dcf7,,,finalTest,,0,0,169,2262182,,37.74,6FLmOB2tfIyEEdva0sDa,934,image-keyboard-response,,,,final Foil,,,,1920
,0.591397849462366,,,,,2,r,True,,,,j,T_nontarget,3,,,,,1200,673ccb0691efe91cd015dcf7,1 (1625).jpg,0.0-21.0-1.0-0.26,0,True,,0,True,,True,False,,False,False,,8,0,6,0,,,,,,,1,j,,550,,images/1 (1625).jpg,,A,,,13,0,,673ccb0691efe91cd015dcf7,,,finalTest,,0,0,279,2365123,,39.46,6TEsjRLMWnCeLfu6SXAm,1044,image-keyboard-response,,,,"studied only, not in trial",,,,1920
,,,False,,,2,r,,,,,,T_target,3,,,,,1200,673ccb0691efe91cd015dcf7,1 (459).jpg,0.0-9.0-2.0-0.3,0,True,True,0,,True,True,False,True,True,False,5,5,0,9,0,,,1,,,,,,,,,images/1 (459).jpg,B,B,,4,4,0,,673ccb0691efe91cd015dcf7,,,initial_study,3,3,0,434,1211072,,20.22,6Uhn6YVkgBu4qjcuitKX,314,image-keyboard-response,1,1,0,"current target, not in next trial",,,,1920
,,,False,,,2,r,,,,,,T_nontarget,3,,,,,1200,673ccb0691efe91cd015dcf7,1 (412).jpg,0.0-5.0-2.0-0.24,0,True,True,0,,True,True,False,False,False,False,1,1,0,8,0,,,1,,,,,,,,,images/1 (412).jpg,A,A,,25,25,0,,673ccb0691efe91cd015dcf7,,,initial_study,0,0,0,365,306940,,5.15,6lUUo1NIjda09Dm3fPMw,31,image-keyboard-response,1,0,0,"studied only, not in trial",,,,1920
,0.5845771144278612,,,,,2,r,False,,,,f,F,3,,,,,1200,673ccb0691efe91cd015dcf7,1 (304).jpg,0.0-24.0-1.0-0.5,0,True,,0,False,,False,False,,False,False,,0,0,9,6,,,1,,,,0,j,,693,,images/1 (304).jpg,,FF,,,0,0,,673ccb0691efe91cd015dcf7,,,finalTest,,0,0,402,2496650,,41.65,6qqPnShfvN5yexza1yNj,1167,image-keyboard-response,,,,final Foil,,,,1920
,0.65,,,,,2,r,True,,,,j,T_target,3,,,,,1200,673ccb0691efe91cd015dcf7,1 (2215).jpg,0.0-16.0-1.0-0.19,0,True,,0,True,,True,False,,True,False,,6,0,1,0,,,,,,,1,j,,1400,,images/1 (2215).jpg,,B,,,13,0,,673ccb0691efe91cd015dcf7,,,finalTest,,9,0,20,2111639,,35.23,6rxHVEEqury7gzYBjwlt,785,image-keyboard-response,,,,"current target, not in next trial",,,,1920
,0.585492227979275,,,,,2,r,True,,,,f,F,3,,,,,1200,673ccb0691efe91cd015dcf7,1 (598).jpg,0.0-19.0-1.0-0.36,0,True,,0,False,,False,False,,False,False,,0,0,4,1,,,1,,,,1,f,,1326,,images/1 (598).jpg,,FF,,,0,0,,673ccb0691efe91cd015dcf7,,,finalTest,,0,0,193,2284028,,38.10,6uajPyXDHrZaPGFFBjKW,958,image-keyboard-response,,,,final Foil,,,,1920
,,,True,,,2,r,,,,,,T_target,3,,,,,1200,673ccb0691efe91cd015dcf7,1 (1996).jpg,0.0-7.0-2.0-0.12,0,True,True,0,,True,True,False,True,True,True,3,3,4,3,0,,,1,,,,,,,,,images/1 (1996).jpg,Dn+1,Dn,,13,13,0,,673ccb0691efe91cd015dcf7,,,initial_study,21,21,20,117,937069,,15.65,6vId1I2NwfDHLHac8Dbp,171,image-keyboard-response,1,1,1,"current target, in next trial",,,,1920
,0.5698198198198199,,,,,2,r,False,,,,f,F,3,,,,,1200,673ccb0691efe91cd015dcf7,1 (1888).jpg,0.0-24.0-1.0-0.47,0,True,,0,False,,False,False,,False,False,,0,0,9,9,,,1,,,,0,j,,869,,images/1 (1888).jpg,,FF,,,0,0,,673ccb0691efe91cd015dcf7,,,finalTest,,0,0,444,2532104,,42.24,6vanaSsLgPo1QQMdHtV5,1209,image-keyboard-response,,,,final Foil,,,,1920
,,,True,,,2,r,,,,,,T_target,3,,,,,1200,673ccb0691efe91cd015dcf7,1 (2280).jpg,0.0-9.0-2.0-0.25,0,False,True,0,,True,True,False,True,True,True,5,5,6,,0,,,1,,,,,,,,,images/1 (2280).jpg,Dn+1,Dn,,26,26,0,,673ccb0691efe91cd015dcf7,,,initial_study,9,9,30,0,1257701,,21.00,6xP5H0Dm3yzYrELnfAPI,336,image-keyboard-response,1,1,1,"current target, in next trial",,,,1920
,0.554878048780488,,,,,2,r,True,,,,j,T_target,3,,,,,1200,673ccb0691efe91cd015dcf7,1 (1774).jpg,0.0-25.0-1.0-0.47,0,True,,1,True,,True,False,,True,False,,9,0,10,0,,,,,,,1,j,,482,,images/1 (1774).jpg,,B,,,24,0,,673ccb0691efe91cd015dcf7,,,finalTest,,8,0,492,2569112,,42.86,71fc0pv5zvRfXh3LEzkg,1257,image-keyboard-response,,,,"current target, not in next trial",,,,1920
,0.6619718309859155,,,,,2,r,True,,,,f,F,3,,,,,1200,673ccb0691efe91cd015dcf7,1 (1562).jpg,0.0-17.0-1.0-0.10,0,True,,0,False,,False,False,,False,False,,0,0,2,2,,,1,,,,1,f,,579,,images/1 (1562).jpg,,FF,,,0,0,,673ccb0691efe91cd015dcf7,,,finalTest,,0,0,71,2174860,,36.28,71jIHlILjzWRB7FUjPFj,836,image-keyboard-response,,,,final Foil,,,,1920
,0.6058394160583942,,,,,2,r,False,,,,f,F,3,,,,,1200,673ccb0691efe91cd015dcf7,1 (1262).jpg,0.0-18.0-1.0-0.28,0,True,,0,False,,False,False,,False,False,,0,0,3,2,,,1,,,,0,j,,583,,images/1 (1262).jpg,,FF,,,0,0,,673ccb0691efe91cd015dcf7,,,finalTest,,0,0,137,2233748,,37.27,72K3rCzIJM13YW19vkaB,902,image-keyboard-response,,,,final Foil,,,,1920
,0.6363636363636364,,True,,,2,r,True,True,,,j,T_target,3,,,,,1200,673ccb0691efe91cd015dcf7,1 (441).jpg,0.0-10.0-10.0-0.21,0,True,True,0,False,True,True,False,True,True,True,6,6,7,,0,,,1,,,,1,j,,800,,images/1 (441).jpg,Dn+1,Dn,,21,21,0,,673ccb0691efe91cd015dcf7,,,initialTest_response,22,22,30,41,1463522,,24.43,74o6nLneuFSEpzCjtxzn,452,image-keyboard-response,1,1,1,"current target, in next trial",,,,1920
,,,True,,,2,r,,,,,,T_target,3,,,,,1200,673ccb0691efe91cd015dcf7,1 (542).jpg,0.0-10.0-2.0-0.0,0,True,True,0,,True,True,False,True,True,True,6,6,7,4,0,,,1,,,,,,,,,images/1 (542).jpg,Dn+1,Dn,,1,1,0,,673ccb0691efe91cd015dcf7,,,initial_study,7,7,15,197,1346489,,22.48,7BT53a7Ndh77JZYCYO47,387,image-keyboard-response,1,1,1,"current target, in next trial",,,,1920
,0.48,,False,,,2,r,True,True,,,j,T_target,3,,,,,1200,673ccb0691efe91cd015dcf7,1 (1395).jpg,0.0-9.0-10.0-0.24,0,True,True,0,False,True,True,False,True,True,False,5,5,False,,0,,,1,,,,1,j,,566,,images/1 (1395).jpg,B,B,,19,19,0,,673ccb0691efe91cd015dcf7,,,initialTest_response,25,25,0,128,1335666,,22.30,7BnoKIg3iv3g0x0sprMm,379,image-keyboard-response,1,1,0,"current target, not in next trial",,,,1920
,,,,,,2,r,,,,,,,3,,,,,1200,673ccb0691efe91cd015dcf7,,0.0-10.0-5.0-0.1,0,,,0,,,,,,,,6,,,,,,,,,2,,,,,,,6,,,6,,,,,673ccb0691efe91cd015dcf7,,54,digitPresentation,,,,,1416247,,23.64,7DChqhr9C8UCo1bavIAx,420,html-keyboard-response,,,,,,,,1920
,,,False,,,2,r,,,,,,T_nontarget,3,,,,,1200,673ccb0691efe91cd015dcf7,1 (1132).jpg,0.0-11.0-2.0-0.18,0,False,True,0,,True,True,False,False,False,False,7,7,0,,0,,,1,,,,,,,,,images/1 (1132).jpg,A,A,,19,19,0,,673ccb0691efe91cd015dcf7,,,initial_study,0,0,0,0,1516730,,25.32,7ECCRCPM3EXIxbnpR3cr,481,image-keyboard-response,1,0,0,"studied only, not in trial",,,,1920
,,,,,,2,r,,,,,,,3,,,,,1200,673ccb0691efe91cd015dcf7,,0.0-9.0-5.0-0.1,0,,,0,,,,,,,,5,,,,,,,,,2,,,,,,,5,,,5,,,,,673ccb0691efe91cd015dcf7,,46,digitPresentation,,,,,1274440,,21.28,7EW4tRbZkc3qdPRw34gH,344,html-keyboard-response,,,,,,,,1920
,0.6363636363636364,,True,,,2,r,True,True,,,j,T_target,3,,,,,1200,673ccb0691efe91cd015dcf7,1 (296).jpg,0.0-12.0-10.0-0.21,0,False,True,0,False,True,True,False,True,True,True,8,8,9,,0,,,1,,,,1,j,,639,,images/1 (296).jpg,Dn+1,Dn,,3,3,0,,673ccb0691efe91cd015dcf7,,,initialTest_response,22,22,11,0,1721879,,28.74,7F1KlBLetMCNgZyX5DbP,604,image-keyboard-response,1,1,1,"current target, in next trial",,,,1920
,,,False,,,2,r,,,,,,T_nontarget,3,,,,,1200,673ccb0691efe91cd015dcf7,1 (1292).jpg,0.0-8.0-2.0-0.29,0,False,True,0,,True,True,False,False,False,False,4,4,0,,0,,,1,,,,,,,,,images/1 (1292).jpg,A,A,,30,30,0,,673ccb0691efe91cd015dcf7,,,initial_study,0,0,0,0,1105244,,18.46,7JV0vFse1iypaUm4HjXI,264,image-keyboard-response,1,0,0,"studied only, not in trial",,,,1920
,,,False,,,2,r,,,,,,T_target,3,,,,,1200,673ccb0691efe91cd015dcf7,1 (1300).jpg,0.0-14.0-2.0-0.27,0,True,True,0,,True,True,False,True,True,False,10,10,0,8,0,,,1,,,,,,,,,images/1 (1300).jpg,B,B,,28,28,0,,673ccb0691efe91cd015dcf7,,,initial_study,17,17,0,355,1919635,,32.03,7LVfyW9rEXus6yrnVIEG,718,image-keyboard-response,1,1,0,"current target, not in next trial",,,,1920
,0.6086956521739131,,True,,,2,r,False,True,False,,f,T_foil,3,,,,,1200,673ccb0691efe91cd015dcf7,1 (676).jpg,0.0-10.0-10.0-0.22,0,True,False,0,False,False,True,False,True,True,True,6,5,6,,0,,,2,,,,0,j,,2925,,images/1 (676).jpg,Dn,Dn,,0,21,0,,673ccb0691efe91cd015dcf7,,,initialTest_response,23,21,23,438,1466565,,24.48,7NyhA3W7vsFu5eTiZ6jD,453,image-keyboard-response,1,1,1,"current target, in next trial, from last trial",,,,1920
,,,False,,,2,r,,,,,,T_target,3,,,,,1200,673ccb0691efe91cd015dcf7,1 (1470).jpg,0.0-13.0-2.0-0.0,0,False,True,0,,True,True,False,True,True,False,9,9,0,,0,,,1,,,,,,,,,images/1 (1470).jpg,B,B,,1,1,0,,673ccb0691efe91cd015dcf7,,,initial_study,14,14,0,0,1733272,,28.92,7Pg4eV4bmE3DwQAGVxnw,615,image-keyboard-response,1,1,0,"current target, not in next trial",,,,1920
,,,False,,,2,r,,,,,,T_nontarget,3,,,,,1200,673ccb0691efe91cd015dcf7,1 (1960).jpg,0.0-12.0-2.0-0.0,0,False,True,0,,True,True,False,False,False,False,8,8,0,,0,,,1,,,,,,,,,images/1 (1960).jpg,A,A,,1,1,0,,673ccb0691efe91cd015dcf7,,,initial_study,0,0,0,0,1605334,,26.79,7Q1ieTGvMUkqVJiiyWxC,539,image-keyboard-response,1,0,0,"studied only, not in trial",,,,1920
,0.8333333333333334,,True,,,2,r,True,True,,,j,T_target,3,,,,,1200,673ccb0691efe91cd015dcf7,1 (1784).jpg,0.0-11.0-10.0-0.11,0,True,True,0,False,True,True,False,True,True,True,7,7,8,,0,,,1,,,,1,j,,724,,images/1 (1784).jpg,Dn+1,Dn,,26,26,0,,673ccb0691efe91cd015dcf7,,,initialTest_response,12,12,21,378,1586419,,26.48,7SNTbXzjTAhrI67kuDyl,518,image-keyboard-response,1,1,1,"current target, in next trial",,,,1920
,0.5820105820105825,,,,,2,r,True,True,False,,j,T_target,3,,,,,1200,673ccb0691efe91cd015dcf7,1 (1784).jpg,0.0-23.0-1.0-0.29,0,True,,0,True,,True,False,,True,True,,7,8,8,0,,,,,,,1,j,,1297,,images/1 (1784).jpg,,Dn,,,26,0,,673ccb0691efe91cd015dcf7,,,finalTest,,12,21,378,2473323,,41.26,7TjhN1LEcZuukuVMYRmV,1143,image-keyboard-response,,,,"current target, in next trial",,,,1920
,,,False,,,2,r,,,,,,T_target,3,,,,,1200,673ccb0691efe91cd015dcf7,1 (596).jpg,0.0-7.0-2.0-0.14,0,True,True,0,,True,True,False,True,True,False,3,3,0,7,0,,,1,,,,,,,,,images/1 (596).jpg,B,B,,15,15,0,,673ccb0691efe91cd015dcf7,,,initial_study,22,22,0,302,941307,,15.73,7fjqAL7cSN3MEwvc0ccF,173,image-keyboard-response,1,1,0,"current target, not in next trial",,,,1920
,,,True,,,2,r,,,,,,T_nontarget,3,,,,,1200,673ccb0691efe91cd015dcf7,1 (2126).jpg,0.0-10.0-2.0-0.3,0,True,True,0,,True,True,False,False,False,True,6,6,7,1,0,,,1,,,,,,,,,images/1 (2126).jpg,Cn+1,Cn,,4,4,0,,673ccb0691efe91cd015dcf7,,,initial_study,0,0,24,15,1352846,,22.58,7i1K3CGTRErwLtaod4BA,390,image-keyboard-response,1,0,1,"studied only, in next trial",,,,1920
,1,,False,,,2,r,True,True,,,f,T_foil,3,,,,,1200,673ccb0691efe91cd015dcf7,1 (812).jpg,0.0-10.0-10.0-0.4,0,True,True,0,False,False,False,False,True,True,False,6,6,False,8,0,,,1,,,,1,f,,722,,images/1 (812).jpg,Fn+1,Fn,,0,0,0,,673ccb0691efe91cd015dcf7,,,initialTest_response,5,5,0,389,1448712,,24.18,81g9KkSnlwbTeHFUTe0M,435,image-keyboard-response,0,1,0,"tested only, not in next trial",,,,1920
,,,False,,,2,r,,,,,,T_target,3,,,,,1200,673ccb0691efe91cd015dcf7,1 (2208).JPG,0.0-8.0-2.0-0.4,0,False,True,0,,True,True,False,True,True,False,4,4,0,,0,,,1,,,,,,,,,images/1 (2208).JPG,B,B,,5,5,0,,673ccb0691efe91cd015dcf7,,,initial_study,29,29,0,0,1052243,,17.57,86AHjVrKMsJ0GYwJR7R0,239,image-keyboard-response,1,1,0,"current target, not in next trial",,,,1920
,0.6071428571428571,,True,,,2,r,True,,True,,f,T_foil,3,,,,,1200,673ccb0691efe91cd015dcf7,1 (842).jpg,0.0-12.0-10.0-0.27,0,True,False,0,False,False,True,False,True,False,True,8,7,8,,0,,,2,,,,1,f,,515,,images/1 (842).jpg,Cn,Cn,,0,18,0,,673ccb0691efe91cd015dcf7,,,initialTest_response,28,0,28,429,1726999,,28.82,86lPrGeeWpuNAmKRTDAG,610,image-keyboard-response,1,0,1,"studied only, in next trial, from last trial",,,,1920
,,,False,,,2,r,,,,,,T_nontarget,3,,,,,1200,673ccb0691efe91cd015dcf7,1 (630).jpg,0.0-9.0-2.0-0.21,0,False,True,0,,True,True,False,False,False,False,5,5,0,,0,,,1,,,,,,,,,images/1 (630).jpg,A,A,,22,22,0,,673ccb0691efe91cd015dcf7,,,initial_study,0,0,0,0,1249225,,20.86,87kiHyUb0H39v8hlSvcK,332,image-keyboard-response,1,0,0,"studied only, not in trial",,,,1920
,,,False,,,2,r,,,,,,T_nontarget,3,,,,,1200,673ccb0691efe91cd015dcf7,1 (2145).jpg,0.0-13.0-2.0-0.24,0,True,True,0,,True,True,False,False,False,False,9,9,0,1,0,,,1,,,,,,,,,images/1 (2145).jpg,A,A,,25,25,0,,673ccb0691efe91cd015dcf7,,,initial_study,0,0,0,35,1784127,,29.77,88uj5N8AuT3grf5XVI8V,639,image-keyboard-response,1,0,0,"studied only, not in trial",,,,1920
,0.5933333333333334,,,,,2,r,False,,,,f,F,3,,,,,1200,673ccb0691efe91cd015dcf7,1 (2098).jpg,0.0-18.0-1.0-0.41,0,True,,0,False,,False,False,,False,False,,0,0,3,0,,,1,,,,0,j,,524,,images/1 (2098).jpg,,FF,,,0,0,,673ccb0691efe91cd015dcf7,,,finalTest,,0,0,150,2243628,,37.43,8A3k64WwdqciHlEKGBfR,915,image-keyboard-response,,,,final Foil,,,,1920
,,,,,,2,r,,,,,,,3,,,,,1200,673ccb0691efe91cd015dcf7,,0.0-11.0-5.0-0.0,0,,,0,,,,,,,,7,,,,,,,,,1,,,,,,,5,,,5,,,,,673ccb0691efe91cd015dcf7,,53,digitPresentation,,,,,1545283,,25.79,8B8VBqg9fMPBTS65L42s,495,html-keyboard-response,,,,,,,,1920
,0,,False,,,2,r,False,False,,,f,T_foil,3,,,,,1200,673ccb0691efe91cd015dcf7,1 (2032).jpg,0.0-5.0-10.0-0.1,0,True,True,0,False,False,False,False,True,True,False,1,1,False,6,0,,,1,,,,0,j,,1280,,images/1 (2032).jpg,Fn+1,Fn,,0,0,0,,673ccb0691efe91cd015dcf7,,,initialTest_response,2,2,0,269,361410,,6.06,8GmHpzZZCiqA1gUyMfjq,52,image-keyboard-response,0,1,0,"tested only, not in next trial",,,,1920
,,,False,,,2,r,,,,,,T_nontarget,3,,,,,1200,673ccb0691efe91cd015dcf7,1 (1750).jpg,0.0-14.0-2.0-0.15,0,True,True,0,,True,True,False,False,False,False,10,10,0,3,0,,,1,,,,,,,,,images/1 (1750).jpg,A,A,,16,16,0,,673ccb0691efe91cd015dcf7,,,initial_study,0,0,0,152,1894219,,31.61,8L7amQB3GObqvmsqJUNz,706,image-keyboard-response,1,0,0,"studied only, not in trial",,,,1920
,,,False,,,2,r,,,,,,T_nontarget,3,,,,,1200,673ccb0691efe91cd015dcf7,1 (1493).jpg,0.0-10.0-2.0-0.21,0,True,True,0,,True,True,False,False,False,False,6,6,0,9,0,,,1,,,,,,,,,images/1 (1493).jpg,A,A,,22,22,0,,673ccb0691efe91cd015dcf7,,,initial_study,0,0,0,436,1391026,,23.22,8OVWbOky4TPufGOxF491,408,image-keyboard-response,1,0,0,"studied only, not in trial",,,,1920
,0.5676274944567629,,,,,2,r,False,,,,f,F,3,,,,,1200,673ccb0691efe91cd015dcf7,1 (2393).jpg,0.0-25.0-1.0-0.6,0,True,,0,False,,False,False,,False,False,,0,0,10,5,,,1,,,,0,j,,719,,images/1 (2393).jpg,,FF,,,0,0,,673ccb0691efe91cd015dcf7,,,finalTest,,0,0,451,2537504,,42.33,8Pf1zqCLyHFa6C4kvZKq,1216,image-keyboard-response,,,,final Foil,,,,1920
,0.4,,True,,,2,r,True,True,,,j,T_target,3,,,,,1200,673ccb0691efe91cd015dcf7,1 (772).jpg,0.0-5.0-10.0-0.4,0,True,True,0,False,True,True,False,True,True,True,1,1,2,,0,,,1,,,,1,j,,874,,images/1 (772).jpg,Dn+1,Dn,,24,24,0,,673ccb0691efe91cd015dcf7,,,initialTest_response,5,5,11,480,364541,,6.11,8RiE3c6Lvy685QWDSAwv,55,image-keyboard-response,1,1,1,"current target, in next trial",,,,1920
,,,False,,,2,r,,,,,,T_target,3,,,,,1200,673ccb0691efe91cd015dcf7,1 (290).jpg,0.0-13.0-2.0-0.15,0,True,True,0,,True,True,False,True,True,False,9,9,0,1,0,,,1,,,,,,,,,images/1 (290).jpg,B,B,,16,16,0,,673ccb0691efe91cd015dcf7,,,initial_study,9,9,0,49,1765035,,29.45,8UPP99wbyRszcKnXKfgi,630,image-keyboard-response,1,1,0,"current target, not in next trial",,,,1920
,,,,,,2,r,,,,,,,3,,,,,1200,673ccb0691efe91cd015dcf7,,0.0-12.0-0.0-0.0,0,,,0,,,,,,,,,,,,,,,,,,,,enter,,1246,,"
    <p style='text-align: justify;color: black;background: white;font: caption-;''>
        Press the 'enter' key to see the next list of pictures. </p>
    ",,,,,,,,673ccb0691efe91cd015dcf7,,,,,,,,1602201,,26.74,8UcQ2Ab3fpEviA8nvIeA,537,html-keyboard-response,,,,,,,,1920
,,,,,,2,r,,,,,,,3,,,,,1200,673ccb0691efe91cd015dcf7,,0.0-6.0-5.0-0.1,0,,,0,,,,,,,,2,,,,,,,,,2,,,,,,,4,,,4,,,,,673ccb0691efe91cd015dcf7,,44,digitPresentation,,,,,808373,,13.51,8ZyM0nVXiVeUIgtlB3w2,116,html-keyboard-response,,,,,,,,1920
,,,,,,2,r,,,,,,,3,,,,,1200,673ccb0691efe91cd015dcf7,,0.0-12.0-5.0-0.3,0,,,0,,,,,,,,8,,,,,,,,,4,,,,,,,4,,,4,,,,,673ccb0691efe91cd015dcf7,,59,digitPresentation,,,,,1681090,,28.06,8gmPQHTqvOzIXJZ8xskP,574,html-keyboard-response,,,,,,,,1920
,0.5798319327731097,,,,,2,r,False,,,,f,F,3,,,,,1200,673ccb0691efe91cd015dcf7,1 (1868).jpg,0.0-23.0-1.0-0.8,0,True,,0,False,,False,False,,False,False,,0,0,8,4,,,1,,,,0,j,,935,,images/1 (1868).jpg,,FF,,,0,0,,673ccb0691efe91cd015dcf7,,,finalTest,,0,0,357,2452145,,40.91,8llnpjIADv2qcVQwxUUZ,1122,image-keyboard-response,,,,final Foil,,,,1920
,0.42857142857142855,,True,,,2,r,False,False,False,,f,T_foil,3,,,,,1200,673ccb0691efe91cd015dcf7,1 (442).jpg,0.0-9.0-10.0-0.13,0,True,False,0,False,False,True,False,True,True,True,5,4,5,,0,,,2,,,,0,j,,1080,,images/1 (442).jpg,Dn,Dn,,0,15,0,,673ccb0691efe91cd015dcf7,,,initialTest_response,14,15,14,299,1323888,,22.10,8rA9om7VYW5qmkTGzJV5,368,image-keyboard-response,1,1,1,"current target, in next trial, from last trial",,,,1920
,0.46153846153846156,,True,,,2,r,False,False,False,,f,T_foil,3,,,,,1200,673ccb0691efe91cd015dcf7,1 (1988).jpg,0.0-9.0-10.0-0.12,0,True,False,0,False,False,False,False,True,False,True,5,4,5,,0,,,2,,,,0,j,,1120,,images/1 (1988).jpg,Fnn,Fnn,,0,0,0,,673ccb0691efe91cd015dcf7,,,initialTest_response,13,0,13,400,1322694,,22.08,8tK8RLWsMIOg2BUMT0au,367,image-keyboard-response,0,1,1,"tested only, in next trial, from last trial",,,,1920
,,,,,,2,r,,,,,,,3,,,,,1200,673ccb0691efe91cd015dcf7,,0.0-10.0-5.0-0.6,0,,,0,,,,,,,,6,,,,,,,,,7,,,,,,,8,,,8,,,,,673ccb0691efe91cd015dcf7,,54,digitPresentation,,,,,1431363,,23.89,8vBuL8eaf74NHD5LoEBt,425,html-keyboard-response,,,,,,,,1920
,0.5185185185185185,,False,,,2,r,True,True,,,j,T_target,3,,,,,1200,673ccb0691efe91cd015dcf7,1 (1541).jpg,0.0-8.0-10.0-0.26,0,False,True,0,False,True,True,False,True,True,False,4,4,False,,0,,,1,,,,1,j,,1180,,images/1 (1541).jpg,B,B,,24,24,0,,673ccb0691efe91cd015dcf7,,,initialTest_response,27,27,0,0,1167759,,19.50,95fJ2iDhQ61TxZ0iewet,305,image-keyboard-response,1,1,0,"current target, not in next trial",,,,1920
,0.7058823529411765,,,,,2,r,True,,,,f,F,3,,,,,1200,673ccb0691efe91cd015dcf7,1 (1782).jpg,0.0-16.0-1.0-0.50,0,True,,0,False,,False,False,,False,False,,0,0,1,7,,,1,,,,1,f,,955,,images/1 (1782).jpg,,FF,,,0,0,,673ccb0691efe91cd015dcf7,,,finalTest,,0,0,51,2139844,,35.70,98dm3z4RdGIzq3gSvInV,816,image-keyboard-response,,,,final Foil,,,,1920
,,,,,,2,r,,,,,,,3,,,,,1200,673ccb0691efe91cd015dcf7,,0.0-6.0-5.0-0.0,0,,,0,,,,,,,,2,,,,,,,,,1,,,,,,,9,,,9,,,,,673ccb0691efe91cd015dcf7,,44,digitPresentation,,,,,805341,,13.46,98vtO0V2uftVAK0c7WvD,115,html-keyboard-response,,,,,,,,1920
,0.5454545454545454,,,,,2,r,True,,,,j,T_nontarget,3,,,,,1200,673ccb0691efe91cd015dcf7,1 (1165).jpg,0.0-16.0-1.0-0.10,0,True,,0,True,,True,False,,False,False,,6,0,1,0,,,,,,,1,j,,726,,images/1 (1165).jpg,,A,,,12,0,,673ccb0691efe91cd015dcf7,,,finalTest,,0,0,11,2102450,,35.08,9EndUkDzTknGhQ9YwILl,776,image-keyboard-response,,,,"studied only, not in trial",,,,1920
,0.5580912863070541,,,,,2,r,True,,,,j,T_nontarget,3,,,,,1200,673ccb0691efe91cd015dcf7,1 (1958).jpg,0.0-25.0-1.0-0.37,0,True,,0,True,,True,False,,False,False,,8,0,10,0,,,,,,,1,j,,640,,images/1 (1958).jpg,,A,,,26,0,,673ccb0691efe91cd015dcf7,,,finalTest,,0,0,482,2563157,,42.76,9Fw8leBK5f0T7pv8AY7W,1247,image-keyboard-response,,,,"studied only, not in trial",,,,1920
,0.5838150289017344,,,,,2,r,True,,,,f,F,3,,,,,1200,673ccb0691efe91cd015dcf7,1 (109).jpg,0.0-22.0-1.0-0.45,0,True,,0,False,,False,False,,False,False,,0,0,7,6,,,1,,,,1,f,,603,,images/1 (109).jpg,,FF,,,0,0,,673ccb0691efe91cd015dcf7,,,finalTest,,0,0,346,2439247,,40.69,9JJ1x77zOU5LORZkcgJl,1111,image-keyboard-response,,,,final Foil,,,,1920
,0.5815899581589963,,,,,2,r,True,,,,f,F,3,,,,,1200,673ccb0691efe91cd015dcf7,1 (757).jpg,0.0-20.0-1.0-0.34,0,True,,0,False,,False,False,,False,False,,0,0,5,1,,,1,,,,1,f,,746,,images/1 (757).jpg,,FF,,,0,0,,673ccb0691efe91cd015dcf7,,,finalTest,,0,0,239,2328675,,38.85,9KSRSV944e4WNBCXT44f,1004,image-keyboard-response,,,,final Foil,,,,1920
,0.6666666666666666,,True,,,2,r,False,False,,,j,T_target,3,,,,,1200,673ccb0691efe91cd015dcf7,1 (1996).jpg,0.0-7.0-10.0-0.20,0,True,True,0,False,True,True,False,True,True,True,3,3,4,,0,,,1,,,,0,f,,810,,images/1 (1996).jpg,Dn+1,Dn,,13,13,0,,673ccb0691efe91cd015dcf7,,,initialTest_response,21,21,20,117,1030975,,17.22,9OiQdmGQT5iWo9vUPMHP,223,image-keyboard-response,1,1,1,"current target, in next trial",,,,1920
,0.6060606060606061,,,,,2,r,True,,,,j,T_target,3,,,,,1200,673ccb0691efe91cd015dcf7,1 (215).jpg,0.0-18.0-1.0-0.23,0,True,,0,True,,True,False,,True,False,,8,0,3,0,,,,,,,1,j,,474,,images/1 (215).jpg,,B,,,22,0,,673ccb0691efe91cd015dcf7,,,finalTest,,10,0,132,2229966,,37.20,9T3Cs1ZU8peIOFcoW7Db,897,image-keyboard-response,,,,"current target, not in next trial",,,,1920
,,,,,,2,r,,,,,,,3,,,,,1200,673ccb0691efe91cd015dcf7,,0.0-13.0-3.0-0.0,0,,,0,,,,,,,,,,,,,,,,,,,,,,,,Summing up the digits as they appear,,,,,,,,673ccb0691efe91cd015dcf7,,,prompt,,,,,1796815,,29.98,9VIVsUMRa3KrlE0Xzw4s,645,html-keyboard-response,,,,,,,,1920
,0.580555555555556,,,,,2,r,True,,,,j,T_foil,3,,,,,1200,673ccb0691efe91cd015dcf7,1 (1415).jpg,0.0-23.0-1.0-0.11,0,True,,0,True,,False,False,,True,False,,8,False,8,8,,,,,,,1,j,,985,,images/1 (1415).jpg,,Fn,,,0,0,,673ccb0691efe91cd015dcf7,,,finalTest,,27,0,360,2455144,,40.96,9VWK0r8yklV6CJdJl2xX,1125,image-keyboard-response,,,,"tested only, not in next trial",,,,1920
,0.8,,False,,,2,r,True,True,,,f,T_foil,3,,,,,1200,673ccb0691efe91cd015dcf7,1 (1507).jpg,0.0-7.0-10.0-0.4,0,True,True,0,False,False,False,False,True,True,False,3,3,False,8,0,,,1,,,,1,f,,1629,,images/1 (1507).jpg,Fn+1,Fn,,0,0,0,,673ccb0691efe91cd015dcf7,,,initialTest_response,5,5,0,370,1017044,,16.99,9YQr1jpIgJcUk4gwMWxz,207,image-keyboard-response,0,1,0,"tested only, not in next trial",,,,1920
,,,False,,,2,r,,,,,,T_nontarget,3,,,,,1200,673ccb0691efe91cd015dcf7,1 (2380).jpg,0.0-11.0-2.0-0.10,0,False,True,0,,True,True,False,False,False,False,7,7,0,,0,,,1,,,,,,,,,images/1 (2380).jpg,A,A,,11,11,0,,673ccb0691efe91cd015dcf7,,,initial_study,0,0,0,0,1499778,,25.03,9fjf18CQd64hf8c8dsUp,473,image-keyboard-response,1,0,0,"studied only, not in trial",,,,1920
,0.5856079404466507,,,,,2,r,True,,,,f,F,3,,,,,1200,673ccb0691efe91cd015dcf7,1 (358).jpg,0.0-24.0-1.0-0.6,0,True,,0,False,,False,False,,False,False,,0,0,9,0,,,1,,,,1,f,,533,,images/1 (358).jpg,,FF,,,0,0,,673ccb0691efe91cd015dcf7,,,finalTest,,0,0,403,2497291,,41.66,9pfqFLhwf8o47yD6edOb,1168,image-keyboard-response,,,,final Foil,,,,1920
,,,,,,2,r,,,,,,,3,,,,,1200,673ccb0691efe91cd015dcf7,,0.0-8.0-5.0-0.0,0,,,0,,,,,,,,4,,,,,,,,,1,,,,,,,4,,,4,,,,,673ccb0691efe91cd015dcf7,,46,digitPresentation,,,,,1110505,,18.55,9rqMbCNZodF7vu6VUaPN,267,html-keyboard-response,,,,,,,,1920
,0.75,,False,,,2,r,True,True,,,j,T_target,3,,,,,1200,673ccb0691efe91cd015dcf7,1 (685).jpg,0.0-9.0-10.0-0.3,0,True,True,0,False,True,True,False,True,True,False,5,5,False,,0,,,1,,,,1,j,,1053,,images/1 (685).jpg,B,B,,13,13,0,,673ccb0691efe91cd015dcf7,,,initialTest_response,4,4,0,174,1313597,,21.93,9s5HzkOtN57hkBd0VW6c,358,image-keyboard-response,1,1,0,"current target, not in next trial",,,,1920
,,,True,,,2,r,,,,,,T_nontarget,3,,,,,1200,673ccb0691efe91cd015dcf7,1 (180).jpg,0.0-6.0-2.0-0.27,0,True,True,0,,True,True,False,False,False,True,2,2,3,3,0,,,1,,,,,,,,,images/1 (180).jpg,Cn+1,Cn,,28,28,0,,673ccb0691efe91cd015dcf7,,,initial_study,0,0,8,129,795817,,13.30,A1MX86lAQ6NTj3bqqPOw,110,image-keyboard-response,1,0,1,"studied only, in next trial",,,,1920
,0.5873605947955395,,,,,2,r,True,,,,j,T_foil,3,,,,,1200,673ccb0691efe91cd015dcf7,1 (2032).jpg,0.0-21.0-1.0-0.16,0,True,,0,True,,False,False,,True,False,,1,False,6,1,,,,,,,1,j,,517,,images/1 (2032).jpg,,Fn,,,0,0,,673ccb0691efe91cd015dcf7,,,finalTest,,2,0,269,2357425,,39.33,A26w4AGiomRlvZ1tEWUi,1034,image-keyboard-response,,,,"tested only, not in next trial",,,,1920
,0.5854271356783924,,,,,2,r,True,,,,f,F,3,,,,,1200,673ccb0691efe91cd015dcf7,1 (788).jpg,0.0-24.0-1.0-0.1,0,True,,0,False,,False,False,,False,False,,0,0,9,7,,,1,,,,1,f,,1011,,images/1 (788).jpg,,FF,,,0,0,,673ccb0691efe91cd015dcf7,,,finalTest,,0,0,398,2493271,,41.59,A3CoV8lmMYmHSjcjqFbo,1163,image-keyboard-response,,,,final Foil,,,,1920
,0.6310679611650486,,,,,2,r,True,,,,f,F,3,,,,,1200,673ccb0691efe91cd015dcf7,1 (601).jpg,0.0-17.0-1.0-0.42,0,True,,0,False,,False,False,,False,False,,0,0,2,6,,,1,,,,1,f,,648,,images/1 (601).jpg,,FF,,,0,0,,673ccb0691efe91cd015dcf7,,,finalTest,,0,0,103,2209460,,36.86,A4glS0SGW5H2GrfcfToy,868,image-keyboard-response,,,,final Foil,,,,1920
,0.6226415094339622,,,,,2,r,True,,,,j,T_target,3,,,,,1200,673ccb0691efe91cd015dcf7,1 (2195).jpg,0.0-17.0-1.0-0.45,0,True,,0,True,,True,False,,True,False,,2,0,2,0,,,,,,,1,j,,847,,images/1 (2195).jpg,,B,,,22,0,,673ccb0691efe91cd015dcf7,,,finalTest,,3,0,106,2212168,,36.91,A6apT9zjjTAGr6WIU3LK,871,image-keyboard-response,,,,"current target, not in next trial",,,,1920
,,,False,,,2,r,,,,,,T_target,3,,,,,1200,673ccb0691efe91cd015dcf7,1 (685).jpg,0.0-9.0-2.0-0.12,0,True,True,0,,True,True,False,True,True,False,5,5,0,4,0,,,1,,,,,,,,,images/1 (685).jpg,B,B,,13,13,0,,673ccb0691efe91cd015dcf7,,,initial_study,4,4,0,174,1230152,,20.54,A7XkM9w610irek5QEsH4,323,image-keyboard-response,1,1,0,"current target, not in next trial",,,,1920
,,,False,,,2,r,,,,,,T_target,3,,,,,1200,673ccb0691efe91cd015dcf7,1 (405).jpg,0.0-10.0-2.0-0.22,0,False,True,0,,True,True,False,True,True,False,6,6,0,,0,,,1,,,,,,,,,images/1 (405).jpg,B,B,,23,23,0,,673ccb0691efe91cd015dcf7,,,initial_study,18,18,0,0,1393140,,23.26,A8SPXiOqECQgUOPoKmlL,409,image-keyboard-response,1,1,0,"current target, not in next trial",,,,1920
,,,True,,,2,r,,,,,,T_target,3,,,,,1200,673ccb0691efe91cd015dcf7,1 (105).jpg,0.0-11.0-2.0-0.21,0,True,True,0,,True,True,False,True,True,True,7,7,8,8,0,,,1,,,,,,,,,images/1 (105).jpg,Dn+1,Dn,,22,22,0,,673ccb0691efe91cd015dcf7,,,initial_study,13,13,24,350,1523088,,25.42,A932hY0nC0tHGjyx3l40,484,image-keyboard-response,1,1,1,"current target, in next trial",,,,1920
,0.75,,False,,,2,r,True,True,,,j,T_target,3,,,,,1200,673ccb0691efe91cd015dcf7,1 (822).jpg,0.0-11.0-10.0-0.7,0,True,True,0,False,True,True,False,True,True,False,7,7,False,,0,,,1,,,,1,j,,801,,images/1 (822).jpg,B,B,,24,24,0,,673ccb0691efe91cd015dcf7,,,initialTest_response,8,8,0,333,1583192,,26.42,AAdkk2Qtt02IwdOBcYNM,514,image-keyboard-response,1,1,0,"current target, not in next trial",,,,1920
,0.570621468926554,,,,,2,r,False,,,,f,F,3,,,,,1200,673ccb0691efe91cd015dcf7,1 (1131).jpg,0.0-19.0-1.0-0.20,0,True,,0,False,,False,False,,False,False,,0,0,4,9,,,1,,,,0,j,,597,,images/1 (1131).jpg,,FF,,,0,0,,673ccb0691efe91cd015dcf7,,,finalTest,,0,0,177,2270418,,37.88,ACb6K9ef909zyfG1W3zw,942,image-keyboard-response,,,,final Foil,,,,1920
,,,,,,2,r,,,,,,,3,,,,,1200,673ccb0691efe91cd015dcf7,,0.0-5.0-3.0-0.0,0,,,0,,,,,,,,,,,,,,,,,,,,,,,,Summing up the digits as they appear,,,,,,,,673ccb0691efe91cd015dcf7,,,prompt,,,,,319660,,5.36,ADjUaNFJb5FawIEhT4vu,37,html-keyboard-response,,,,,,,,1920
,0.3333333333333333,,False,,,2,r,True,True,,,j,T_target,3,,,,,1200,673ccb0691efe91cd015dcf7,1 (2195).jpg,0.0-6.0-10.0-0.2,0,True,True,0,False,True,True,False,True,True,False,2,2,False,,0,,,1,,,,1,j,,1784,,images/1 (2195).jpg,B,B,,22,22,0,,673ccb0691efe91cd015dcf7,,,initialTest_response,3,3,0,106,849310,,14.19,AFFX8jLvBOps5jL4Jyg0,129,image-keyboard-response,1,1,0,"current target, not in next trial",,,,1920
,0.625,,,,,2,r,False,,,,f,F,3,,,,,1200,673ccb0691efe91cd015dcf7,1 (730).jpg,0.0-17.0-1.0-0.43,0,True,,0,False,,False,False,,False,False,,0,0,2,9,,,1,,,,0,j,,669,,images/1 (730).jpg,,FF,,,0,0,,673ccb0691efe91cd015dcf7,,,finalTest,,0,0,104,2210247,,36.87,AIkiTHuuhQu7Y8xxcjXF,869,image-keyboard-response,,,,final Foil,,,,1920
,0.8,,False,,,2,r,True,True,,,j,T_target,3,,,,,1200,673ccb0691efe91cd015dcf7,1 (1977).jpg,0.0-11.0-10.0-0.4,0,False,True,0,False,True,True,False,True,True,False,7,7,False,,0,,,1,,,,1,j,,680,,images/1 (1977).jpg,B,B,,5,5,0,,673ccb0691efe91cd015dcf7,,,initialTest_response,5,5,0,0,1580772,,26.38,AJzHhcEBhKCJJwuztFpc,511,image-keyboard-response,1,1,0,"current target, not in next trial",,,,1920
,1,,False,,,2,r,True,True,,,f,T_foil,3,,,,,1200,673ccb0691efe91cd015dcf7,1 (2057).jpg,0.0-10.0-10.0-0.1,0,True,True,0,False,False,False,False,True,True,False,6,6,False,6,0,,,1,,,,1,f,,879,,images/1 (2057).jpg,Fn+1,Fn,,0,0,0,,673ccb0691efe91cd015dcf7,,,initialTest_response,2,2,0,256,1446370,,24.14,AKT3GNkDkRXjPtvY69f5,432,image-keyboard-response,0,1,0,"tested only, not in next trial",,,,1920
,,,,,,2,r,,,,,,,3,,,,,1200,673ccb0691efe91cd015dcf7,,0.0-14.0-5.0-0.3,0,,,0,,,,,,,,10,,,,,,,,,4,,,,,,,9,,,9,,,,,673ccb0691efe91cd015dcf7,,51,digitPresentation,,,,,1938174,,32.34,AMFDjKc3l6YuNxPpw5oq,726,html-keyboard-response,,,,,,,,1920
,0.5833333333333338,,,,,2,r,True,,,,j,T_target,3,,,,,1200,673ccb0691efe91cd015dcf7,1 (2390).jpg,0.0-20.0-1.0-0.23,0,True,,0,True,,True,False,,True,False,,6,0,5,0,,,,,,,1,j,,566,,images/1 (2390).jpg,,B,,,20,0,,673ccb0691efe91cd015dcf7,,,finalTest,,3,0,228,2321012,,38.72,ANu1mTnfs9xwOjusttTm,993,image-keyboard-response,,,,"current target, not in next trial",,,,1920
,0.5797872340425534,,,,,2,r,True,,,,f,F,3,,,,,1200,673ccb0691efe91cd015dcf7,1 (1955).jpg,0.0-19.0-1.0-0.31,0,True,,0,False,,False,False,,False,False,,0,0,4,9,,,1,,,,1,f,,554,,images/1 (1955).jpg,,FF,,,0,0,,673ccb0691efe91cd015dcf7,,,finalTest,,0,0,188,2278953,,38.02,AOYbsSofpNOseoNIBvDh,953,image-keyboard-response,,,,final Foil,,,,1920
,0.5555555555555556,,True,,,2,r,True,True,,,j,T_target,3,,,,,1200,673ccb0691efe91cd015dcf7,1 (2280).jpg,0.0-9.0-10.0-0.8,0,False,True,0,False,True,True,False,True,True,True,5,5,6,,0,,,1,,,,1,j,,1418,,images/1 (2280).jpg,Dn+1,Dn,,26,26,0,,673ccb0691efe91cd015dcf7,,,initialTest_response,9,9,30,0,1318311,,22.01,AQlNzrXrePKHKnoqwAdV,363,image-keyboard-response,1,1,1,"current target, in next trial",,,,1920
,,,False,,,2,r,,,,,,T_target,3,,,,,1200,673ccb0691efe91cd015dcf7,1 (934).jpg,0.0-5.0-2.0-0.9,0,False,True,0,,True,True,False,True,True,False,1,1,0,,0,,,1,,,,,,,,,images/1 (934).jpg,B,B,,10,10,0,,673ccb0691efe91cd015dcf7,,,initial_study,15,15,0,0,275153,,4.62,AUQEYh0piRHxrqNEmF85,16,image-keyboard-response,1,1,0,"current target, not in next trial",,,,1920
,,,,,,2,r,,,,,,,3,,,,,1200,673ccb0691efe91cd015dcf7,,0.0-14.0-5.0-0.6,0,,,0,,,,,,,,10,,,,,,,,,7,,,,,,,4,,,4,,,,,673ccb0691efe91cd015dcf7,,51,digitPresentation,,,,,1947233,,32.49,AUnCRgqgmJXrczgb8BGW,729,html-keyboard-response,,,,,,,,1920
,,,False,,,2,r,,,,,,T_nontarget,3,,,,,1200,673ccb0691efe91cd015dcf7,1 (61).jpg,0.0-7.0-2.0-0.19,0,True,True,0,,True,True,False,False,False,False,3,3,0,6,0,,,1,,,,,,,,,images/1 (61).jpg,A,A,,20,20,0,,673ccb0691efe91cd015dcf7,,,initial_study,0,0,0,292,951897,,15.90,AWh39g8sxCdp3fVx15CX,178,image-keyboard-response,1,0,0,"studied only, not in trial",,,,1920
,0.5833333333333339,,,,,2,r,True,,,,j,T_foil,3,,,,,1200,673ccb0691efe91cd015dcf7,1 (1765).jpg,0.0-24.0-1.0-0.11,0,True,,0,True,,False,False,,True,False,,10,0,9,10,,,,,,,1,j,,720,,images/1 (1765).jpg,,Fn,,,0,0,,673ccb0691efe91cd015dcf7,,,finalTest,,22,0,408,2501861,,41.73,AY7qmXHJqf7h7zcEpSJY,1173,image-keyboard-response,,,,"tested only, not in next trial",,,,1920
,0.7857142857142857,,True,,,2,r,False,True,False,,f,T_foil,3,,,,,1200,673ccb0691efe91cd015dcf7,1 (2347).jpg,0.0-7.0-10.0-0.13,0,True,False,0,False,False,True,False,True,True,True,3,2,3,,0,,,2,,,,0,j,,538,,images/1 (2347).jpg,Dn,Dn,,0,6,0,,673ccb0691efe91cd015dcf7,,,initialTest_response,14,6,14,325,1024802,,17.12,AaAIPxUd98Vo3xX7GLp0,216,image-keyboard-response,1,1,1,"current target, in next trial, from last trial",,,,1920
,0.7777777777777778,,True,,,2,r,True,False,True,,f,T_foil,3,,,,,1200,673ccb0691efe91cd015dcf7,1 (815).jpg,0.0-11.0-10.0-0.8,0,False,False,0,False,False,False,False,True,False,True,7,6,7,,0,,,2,,,,1,f,,720,,images/1 (815).jpg,Fnn,Fnn,,0,0,0,,673ccb0691efe91cd015dcf7,,,initialTest_response,9,0,9,0,1584027,,26.44,AajwcRuerBP41h9sym8p,515,image-keyboard-response,0,1,1,"tested only, in next trial, from last trial",,,,1920
,0.5912408759124091,,,,,2,r,True,,,,f,F,3,,,,,1200,673ccb0691efe91cd015dcf7,1 (1741).jpg,0.0-21.0-1.0-0.21,0,True,,0,False,,False,False,,False,False,,0,0,6,7,,,1,,,,1,f,,707,,images/1 (1741).jpg,,FF,,,0,0,,673ccb0691efe91cd015dcf7,,,finalTest,,0,0,274,2361747,,39.40,AigGpCHZC6rbDL6Jtxsk,1039,image-keyboard-response,,,,final Foil,,,,1920
,,,True,,,2,r,,,,,,T_target,3,,,,,1200,673ccb0691efe91cd015dcf7,1 (1381).jpg,0.0-13.0-2.0-0.18,0,False,True,0,,True,True,False,True,True,True,9,9,10,,0,,,1,,,,,,,,,images/1 (1381).jpg,Dn+1,Dn,,19,19,0,,673ccb0691efe91cd015dcf7,,,initial_study,6,6,25,0,1771408,,29.56,AlxFdntJdjUDeZIuNp8J,633,image-keyboard-response,1,1,1,"current target, in next trial",,,,1920
,0.6,,True,,,2,r,True,True,True,,f,T_foil,3,,,,,1200,673ccb0691efe91cd015dcf7,1 (2124).jpg,0.0-8.0-10.0-0.14,0,False,False,0,False,False,False,False,True,False,True,4,3,4,,0,,,2,,,,1,f,,700,,images/1 (2124).jpg,Fnn,Fnn,,0,0,0,,673ccb0691efe91cd015dcf7,,,initialTest_response,15,0,15,0,1155030,,19.29,Au9Lt8G9Ll915xOyV78d,293,image-keyboard-response,0,1,1,"tested only, in next trial, from last trial",,,,1920
,0.581113801452785,,,,,2,r,False,,,,j,T_target,3,,,,,1200,673ccb0691efe91cd015dcf7,1 (2298).jpg,0.0-24.0-1.0-0.16,0,True,,0,True,,True,False,,True,False,,4,0,9,0,,,,,,,0,f,,599,,images/1 (2298).jpg,,B,,,18,0,,673ccb0691efe91cd015dcf7,,,finalTest,,26,0,413,2505669,,41.80,B33SoAhLdfce4A5foxcN,1178,image-keyboard-response,,,,"current target, not in next trial",,,,1920
,,,,,,2,r,,,,,,,3,,,,,1200,673ccb0691efe91cd015dcf7,,0.0-11.0-5.0-0.5,0,,,0,,,,,,,,7,,,,,,,,,6,,,,,,,6,,,6,,,,,673ccb0691efe91cd015dcf7,,53,digitPresentation,,,,,1560379,,26.04,B4beUu73WS9NV27q6W1J,500,html-keyboard-response,,,,,,,,1920
,,,False,,,2,r,,,,,,T_nontarget,3,,,,,1200,673ccb0691efe91cd015dcf7,1 (1862).jpg,0.0-10.0-2.0-0.27,0,True,True,0,,True,True,False,False,False,False,6,6,0,5,0,,,1,,,,,,,,,images/1 (1862).jpg,A,A,,28,28,0,,673ccb0691efe91cd015dcf7,,,initial_study,0,0,0,215,1403747,,23.43,BOWNc7ipvdnaP8695DqH,414,image-keyboard-response,1,0,0,"studied only, not in trial",,,,1920
,0.6666666666666666,,True,,,2,r,True,True,,,j,T_target,3,,,,,1200,673ccb0691efe91cd015dcf7,1 (561).jpg,0.0-6.0-10.0-0.11,0,True,True,0,False,True,True,False,True,True,True,2,2,3,,0,,,1,,,,1,j,,605,,images/1 (561).jpg,Dn+1,Dn,,8,8,0,,673ccb0691efe91cd015dcf7,,,initialTest_response,12,12,4,3,856291,,14.31,BQBsVZXZeqsVwUDgOwgO,138,image-keyboard-response,1,1,1,"current target, in next trial",,,,1920
,0.5822102425876017,,,,,2,r,False,,,,f,F,3,,,,,1200,673ccb0691efe91cd015dcf7,1 (2397).jpg,0.0-23.0-1.0-0.22,0,True,,0,False,,False,False,,False,False,,0,0,8,2,,,1,,,,0,j,,994,,images/1 (2397).jpg,,FF,,,0,0,,673ccb0691efe91cd015dcf7,,,finalTest,,0,0,371,2467000,,41.15,BReNjXpZkCfnbXcxUjtn,1136,image-keyboard-response,,,,final Foil,,,,1920
,,,,,,2,r,,,,,,,3,,,,,1200,673ccb0691efe91cd015dcf7,,0.0-8.0-5.0-0.6,0,,,0,,,,,,,,4,,,,,,,,,7,,,,,,,9,,,9,,,,,673ccb0691efe91cd015dcf7,,46,digitPresentation,,,,,1128598,,18.85,BVxkM0QHvsnXek2vIJ47,273,html-keyboard-response,,,,,,,,1920
,0.5659340659340663,,,,,2,r,False,,,,f,F,3,,,,,1200,673ccb0691efe91cd015dcf7,1 (406).jpg,0.0-19.0-1.0-0.25,0,True,,0,False,,False,False,,False,False,,0,0,4,8,,,1,,,,0,j,,929,,images/1 (406).jpg,,FF,,,0,0,,673ccb0691efe91cd015dcf7,,,finalTest,,0,0,182,2274283,,37.94,BYmyDUqLV9ncEiCNZbPl,947,image-keyboard-response,,,,final Foil,,,,1920
,,,,,,2,r,,,,,,,3,,,,,1200,673ccb0691efe91cd015dcf7,,0.0-8.0-5.0-0.5,0,,,0,,,,,,,,4,,,,,,,,,6,,,,,,,7,,,7,,,,,673ccb0691efe91cd015dcf7,,46,digitPresentation,,,,,1125586,,18.80,BaQ3PB80uLagVwqT5LbB,272,html-keyboard-response,,,,,,,,1920
,0.8,,True,,,2,r,False,True,False,,f,T_foil,3,,,,,1200,673ccb0691efe91cd015dcf7,1 (542).jpg,0.0-11.0-10.0-0.14,0,True,False,0,False,False,True,False,True,True,True,7,6,7,,0,,,2,,,,0,j,,670,,images/1 (542).jpg,Dn,Dn,,0,1,0,,673ccb0691efe91cd015dcf7,,,initialTest_response,15,1,15,197,1588745,,26.52,BjZjyUKfm6fMIL8dRhqr,521,image-keyboard-response,1,1,1,"current target, in next trial, from last trial",,,,1920
,,,,,,2,r,,,,,,,3,,,,,1200,673ccb0691efe91cd015dcf7,,0.0-9.0-5.0-0.4,0,,,0,,,,,,,,5,,,,,,,,,5,,,,,,,5,,,5,,,,,673ccb0691efe91cd015dcf7,,46,digitPresentation,,,,,1283494,,21.43,BngyNq2tqE1oIyfS7XAq,347,html-keyboard-response,,,,,,,,1920
,0.65,,True,,,2,r,False,False,,,f,T_foil,3,,,,,1200,673ccb0691efe91cd015dcf7,1 (2066).jpg,0.0-12.0-10.0-0.19,0,False,True,0,False,False,False,False,True,True,True,8,8,9,,0,,,1,,,,0,j,,668,,images/1 (2066).jpg,Fnn+1,Fnn,,0,0,0,,673ccb0691efe91cd015dcf7,,,initialTest_response,20,20,28,0,1720441,,28.71,BnzWnV1ILmsrZ7cE3stv,602,image-keyboard-response,0,1,1,"tested only, in next trial",,,,1920
,0.5798319327731097,,,,,2,r,False,,,,j,T_nontarget,3,,,,,1200,673ccb0691efe91cd015dcf7,1 (460).jpg,0.0-20.0-1.0-0.33,0,True,,0,True,,True,False,,False,False,,7,0,5,0,,,,,,,0,f,,539,,images/1 (460).jpg,,A,,,17,0,,673ccb0691efe91cd015dcf7,,,finalTest,,0,0,238,2327820,,38.83,BoffWY8sIFP8IMhTaEvK,1003,image-keyboard-response,,,,"studied only, not in trial",,,,1920
,,,False,,,2,r,,,,,,T_nontarget,3,,,,,1200,673ccb0691efe91cd015dcf7,1 (1829).jpg,0.0-6.0-2.0-0.15,0,True,True,0,,True,True,False,False,False,False,2,2,0,10,0,,,1,,,,,,,,,images/1 (1829).jpg,A,A,,16,16,0,,673ccb0691efe91cd015dcf7,,,initial_study,0,0,0,459,770392,,12.88,BpDKtu3fh7qocYY6NsSp,98,image-keyboard-response,1,0,0,"studied only, not in trial",,,,1920
,,,,,,2,r,,,,,,,3,,,,,1200,673ccb0691efe91cd015dcf7,,0.0-8.0-0.0-0.0,0,,,0,,,,,,,,,,,,,,,,,,,,enter,,2816,,"
    <p style='text-align: justify;color: black;background: white;font: caption-;''>
        Press the 'enter' key to see the next list of pictures. </p>
    ",,,,,,,,673ccb0691efe91cd015dcf7,,,,,,,,1040630,,17.38,BpzSeb9dzVwtc7W1rvi7,233,html-keyboard-response,,,,,,,,1920
,,,False,,,2,r,,,,,,T_target,3,,,,,1200,673ccb0691efe91cd015dcf7,1 (1145).jpg,0.0-14.0-2.0-0.18,0,False,True,0,,True,True,False,True,True,False,10,10,0,,0,,,1,,,,,,,,,images/1 (1145).jpg,B,B,,19,19,0,,673ccb0691efe91cd015dcf7,,,initial_study,18,18,0,0,1900598,,31.71,BqfQLB4FusjXBCccCRBJ,709,image-keyboard-response,1,1,0,"current target, not in next trial",,,,1920
,,,False,,,2,r,,,,,,T_nontarget,3,,,,,1200,673ccb0691efe91cd015dcf7,1 (2132).jpg,0.0-6.0-2.0-0.29,0,True,True,0,,True,True,False,False,False,False,2,2,0,2,0,,,1,,,,,,,,,images/1 (2132).jpg,A,A,,30,30,0,,673ccb0691efe91cd015dcf7,,,initial_study,0,0,0,65,800058,,13.37,BxwJ4jZgqSZQEOXAbAZO,112,image-keyboard-response,1,0,0,"studied only, not in trial",,,,1920
,0.5972222222222222,,,,,2,r,True,True,False,,j,T_target,3,,,,,1200,673ccb0691efe91cd015dcf7,1 (1265).jpg,0.0-18.0-1.0-0.35,0,True,,0,True,,True,False,,True,False,,9,0,3,0,,,,,,,1,j,,678,,images/1 (1265).jpg,,Dn,,,28,0,,673ccb0691efe91cd015dcf7,,,finalTest,,20,0,144,2239069,,37.35,C26NPUXIyDjidSBHb90v,909,image-keyboard-response,,,,"current target, in next trial",,,,1920
,0.5675057208237988,,,,,2,r,True,,,,f,F,3,,,,,1200,673ccb0691efe91cd015dcf7,1 (312).jpg,0.0-24.0-1.0-0.40,0,True,,0,False,,False,False,,False,False,,0,0,9,1,,,1,,,,1,f,,776,,images/1 (312).jpg,,FF,,,0,0,,673ccb0691efe91cd015dcf7,,,finalTest,,0,0,437,2527063,,42.15,C54RokFiGWjc1YkvUmT1,1202,image-keyboard-response,,,,final Foil,,,,1920
,0.6538461538461539,,True,,,2,r,True,True,,,j,T_target,3,,,,,1200,673ccb0691efe91cd015dcf7,1 (703).jpg,0.0-5.0-10.0-0.25,0,True,True,0,False,True,True,False,True,True,True,1,1,2,,0,,,1,,,,1,j,,742,,images/1 (703).jpg,Dn+1,Dn,,20,20,0,,673ccb0691efe91cd015dcf7,,,initialTest_response,26,26,29,208,383640,,6.43,C9nzTfDAZsLBSzgNSeDz,76,image-keyboard-response,1,1,1,"current target, in next trial",,,,1920
,0.5927272727272731,,,,,2,r,True,,,,f,F,3,,,,,1200,673ccb0691efe91cd015dcf7,1 (334).jpg,0.0-21.0-1.0-0.22,0,True,,0,False,,False,False,,False,False,,0,0,6,2,,,1,,,,1,f,,642,,images/1 (334).jpg,,FF,,,0,0,,673ccb0691efe91cd015dcf7,,,finalTest,,0,0,275,2362501,,39.41,CAdzFwpHLkKHyEBhugNh,1040,image-keyboard-response,,,,final Foil,,,,1920
,0.5785123966942154,,,,,2,r,False,,,,j,T_foil,3,,,,,1200,673ccb0691efe91cd015dcf7,1 (1112).jpg,0.0-20.0-1.0-0.37,0,True,,0,True,,False,False,,True,False,,10,0,5,10,,,,,,,0,f,,453,,images/1 (1112).jpg,,Fn,,,0,0,,673ccb0691efe91cd015dcf7,,,finalTest,,21,0,242,2330616,,38.88,CGd5q3hMmIuFtt7d3jdX,1007,image-keyboard-response,,,,"tested only, not in next trial",,,,1920
,,,False,,,2,r,,,,,,T_target,3,,,,,1200,673ccb0691efe91cd015dcf7,1 (1789).jpg,0.0-10.0-2.0-0.10,0,False,True,0,,True,True,False,True,True,False,6,6,0,,0,,,1,,,,,,,,,images/1 (1789).jpg,B,B,,11,11,0,,673ccb0691efe91cd015dcf7,,,initial_study,28,28,0,0,1367676,,22.83,CMj0MdCHnem6udpdvW4G,397,image-keyboard-response,1,1,0,"current target, not in next trial",,,,1920
,0.7142857142857143,,,,,2,r,True,,,,j,T_target,3,,,,,1200,673ccb0691efe91cd015dcf7,1 (96).jpg,0.0-16.0-1.0-0.6,0,True,,0,True,,True,False,,True,False,,1,0,1,0,,,,,,,1,j,,1860,,images/1 (96).jpg,,B,,,15,0,,673ccb0691efe91cd015dcf7,,,finalTest,,9,0,7,2098819,,35.02,CRUh8M4M3kakv2BYjsOK,772,image-keyboard-response,,,,"current target, not in next trial",,,,1920
,0.5986842105263158,,,,,2,r,True,,,,j,T_nontarget,3,,,,,1200,673ccb0691efe91cd015dcf7,1 (1750).jpg,0.0-18.0-1.0-0.43,0,True,,0,True,,True,False,,False,False,,10,0,3,0,,,,,,,1,j,,581,,images/1 (1750).jpg,,A,,,16,0,,673ccb0691efe91cd015dcf7,,,finalTest,,0,0,152,2245155,,37.46,CSvNFxf1sljtYScLs4Q4,917,image-keyboard-response,,,,"studied only, not in trial",,,,1920
,0.6538461538461539,,,,,2,r,False,,,,f,F,3,,,,,1200,673ccb0691efe91cd015dcf7,1 (874).jpg,0.0-17.0-1.0-0.17,0,True,,0,False,,False,False,,False,False,,0,0,2,2,,,1,,,,0,j,,907,,images/1 (874).jpg,,FF,,,0,0,,673ccb0691efe91cd015dcf7,,,finalTest,,0,0,78,2181723,,36.40,ChCmluiGeNV2nAPIKEZo,843,image-keyboard-response,,,,final Foil,,,,1920
,,,False,,,2,r,,,,,,T_target,3,,,,,1200,673ccb0691efe91cd015dcf7,1 (1366).jpg,0.0-6.0-2.0-0.28,0,True,True,0,,True,True,False,True,True,False,2,2,0,3,0,,,1,,,,,,,,,images/1 (1366).jpg,B,B,,29,29,0,,673ccb0691efe91cd015dcf7,,,initial_study,30,30,0,148,797931,,13.34,CuIyBHR0PggqgLy1PKne,111,image-keyboard-response,1,1,0,"current target, not in next trial",,,,1920
,0.5882352941176475,,,,,2,r,False,,,,j,T_nontarget,3,,,,,1200,673ccb0691efe91cd015dcf7,1 (2070).jpg,0.0-21.0-1.0-0.19,0,True,,0,True,,True,False,,False,False,,9,0,6,0,,,,,,,0,f,,490,,images/1 (2070).jpg,,A,,,30,0,,673ccb0691efe91cd015dcf7,,,finalTest,,0,0,272,2359247,,39.36,Cz1WNsITRRVMpZCnOjK9,1037,image-keyboard-response,,,,"studied only, not in trial",,,,1920
,0.5833333333333338,,,,,2,r,False,,,,f,F,3,,,,,1200,673ccb0691efe91cd015dcf7,1 (1190).jpg,0.0-20.0-1.0-0.47,0,True,,0,False,,False,False,,False,False,,0,0,5,5,,,1,,,,0,j,,1659,,images/1 (1190).jpg,,FF,,,0,0,,673ccb0691efe91cd015dcf7,,,finalTest,,0,0,252,2339887,,39.04,D1NmnRWjrH2wyne1oybZ,1017,image-keyboard-response,,,,final Foil,,,,1920
,0.5564853556485356,,,,,2,r,False,False,,,j,T_foil,3,,,,,1200,673ccb0691efe91cd015dcf7,1 (138).jpg,0.0-25.0-1.0-0.33,0,True,,0,True,,False,False,,True,False,,10,0,10,10,,,,,,,0,f,,485,,images/1 (138).jpg,,Fnn,,,0,0,,673ccb0691efe91cd015dcf7,,,finalTest,,24,0,478,2560200,,42.71,D2f0783MPCZuohHUQpio,1243,image-keyboard-response,,,,"tested only, in next trial",,,,1920
,,,False,,,2,r,,,,,,T_target,3,,,,,1200,673ccb0691efe91cd015dcf7,1 (2014).jpg,0.0-9.0-2.0-0.7,0,True,True,0,,True,True,False,True,True,False,5,5,0,7,0,,,1,,,,,,,,,images/1 (2014).jpg,B,B,,8,8,0,,673ccb0691efe91cd015dcf7,,,initial_study,1,1,0,337,1219554,,20.36,D5qxZEu3We5nHO4d7rll,318,image-keyboard-response,1,1,0,"current target, not in next trial",,,,1920
,0.6428571428571429,,False,,,2,r,True,True,,,f,T_foil,3,,,,,1200,673ccb0691efe91cd015dcf7,1 (1815).jpg,0.0-5.0-10.0-0.13,0,False,True,0,False,False,False,False,True,True,False,1,1,False,,0,,,1,,,,1,f,,825,,images/1 (1815).jpg,Fn+1,Fn,,0,0,0,,673ccb0691efe91cd015dcf7,,,initialTest_response,14,14,0,0,373073,,6.25,D9Ayf3IvhppI0FFRkEUZ,64,image-keyboard-response,0,1,0,"tested only, not in next trial",,,,1920
,,,False,,,2,r,,,,,,T_target,3,,,,,1200,673ccb0691efe91cd015dcf7,1 (1977).jpg,0.0-11.0-2.0-0.4,0,False,True,0,,True,True,False,True,True,False,7,7,0,,0,,,1,,,,,,,,,images/1 (1977).jpg,B,B,,5,5,0,,673ccb0691efe91cd015dcf7,,,initial_study,5,5,0,0,1487078,,24.82,DBcyosL0KA8VMyGW2fsc,467,image-keyboard-response,1,1,0,"current target, not in next trial",,,,1920
,,,,,,2,r,,,,,,,3,,,,,1200,673ccb0691efe91cd015dcf7,,0.0-9.0-0.0-0.0,0,,,0,,,,,,,,,,,,,,,,,,,,enter,,30183,,"
    <p style='text-align: justify;color: black;background: white;font: caption-;''>
        Press the 'enter' key to see the next list of pictures. </p>
    ",,,,,,,,673ccb0691efe91cd015dcf7,,,,,,,,1201561,,20.06,DD4ahIorV1bZJ7I82Dfp,309,html-keyboard-response,,,,,,,,1920
,0.5888324873096452,,,,,2,r,True,True,False,,j,T_target,3,,,,,1200,673ccb0691efe91cd015dcf7,1 (542).jpg,0.0-19.0-1.0-0.40,0,True,,0,True,,True,False,,True,True,,6,7,4,0,,,,,,,1,j,,504,,images/1 (542).jpg,,Dn,,,1,0,,673ccb0691efe91cd015dcf7,,,finalTest,,7,15,197,2286589,,38.15,DDpc70qx95xdhzM0t7R8,962,image-keyboard-response,,,,"current target, in next trial",,,,1920
,0.5569358178053831,,,,,2,r,False,,,,j,T_nontarget,3,,,,,1200,673ccb0691efe91cd015dcf7,1 (2371).jpg,0.0-25.0-1.0-0.38,0,True,,0,True,,True,False,,False,False,,1,0,10,0,,,,,,,0,f,,560,,images/1 (2371).jpg,,A,,,29,0,,673ccb0691efe91cd015dcf7,,,finalTest,,0,0,483,2563823,,42.77,DNXbkqleU7NfLTmlLkoe,1248,image-keyboard-response,,,,"studied only, not in trial",,,,1920
,,,,,,2,r,,,,,,,3,,,,,1200,673ccb0691efe91cd015dcf7,,0.0-14.0-5.0-0.7,0,,,0,,,,,,,,10,,,,,,,,,8,,,,,,,9,,,9,,,,,673ccb0691efe91cd015dcf7,,51,digitPresentation,,,,,1950261,,32.54,DVhNmTCBw7r5PS2P33i2,730,html-keyboard-response,,,,,,,,1920
,0.6071428571428569,,False,,,2,r,False,False,,,f,T_foil,3,,,,,1200,673ccb0691efe91cd015dcf7,1 (1864).jpg,0.0-6.0-10.0-0.27,0,True,True,0,False,False,False,False,True,True,False,2,2,False,7,0,,,1,,,,0,j,,696,,images/1 (1864).jpg,Fn+1,Fn,,0,0,0,,673ccb0691efe91cd015dcf7,,,initialTest_response,28,28,0,319,869931,,14.54,DVmzSwEvodDVj1vcK0Cj,154,image-keyboard-response,0,1,0,"tested only, not in next trial",,,,1920
,,,,,,2,r,,,,,,,3,,,,,1200,673ccb0691efe91cd015dcf7,,0.0-5.0-5.0-0.6,0,,,0,,,,,,,,1,,,,,,,,,7,,,,,,,6,,,6,,,,,673ccb0691efe91cd015dcf7,,55,digitPresentation,,,,,340911,,5.72,DZ0bdqggiPKbzaSgs38L,45,html-keyboard-response,,,,,,,,1920
,0.6086956521739131,,True,,,2,r,False,False,,,j,T_target,3,,,,,1200,673ccb0691efe91cd015dcf7,1 (890).jpg,0.0-12.0-10.0-0.22,0,True,True,0,False,True,True,False,True,True,True,8,8,9,,0,,,1,,,,0,f,,929,,images/1 (890).jpg,Dn+1,Dn,,23,23,0,,673ccb0691efe91cd015dcf7,,,initialTest_response,23,23,4,311,1722912,,28.75,Dd0W6wOBfT0RpfYwPg9Y,605,image-keyboard-response,1,1,1,"current target, in next trial",,,,1920
,0.5672645739910315,,,,,2,r,False,,,,f,F,3,,,,,1200,673ccb0691efe91cd015dcf7,1 (2401).jpg,0.0-25.0-1.0-0.1,0,True,,0,False,,False,False,,False,False,,0,0,10,10,,,1,,,,0,j,,412,,images/1 (2401).jpg,,FF,,,0,0,,673ccb0691efe91cd015dcf7,,,finalTest,,0,0,446,2533331,,42.26,DdYkZlJAdMaibnasEboO,1211,image-keyboard-response,,,,final Foil,,,,1920
,0.5714285714285714,,False,,,2,r,False,False,,,f,T_foil,3,,,,,1200,673ccb0691efe91cd015dcf7,1 (338).jpg,0.0-8.0-10.0-0.13,0,False,True,0,False,False,False,False,True,True,False,4,4,False,,0,,,1,,,,0,j,,642,,images/1 (338).jpg,Fn+1,Fn,,0,0,0,,673ccb0691efe91cd015dcf7,,,initialTest_response,14,14,0,0,1154225,,19.27,DfhOo45e0pMhB3TisUo3,292,image-keyboard-response,0,1,0,"tested only, not in next trial",,,,1920
,,,False,,,2,r,,,,,,T_target,3,,,,,1200,673ccb0691efe91cd015dcf7,1 (1502).jpg,0.0-5.0-2.0-0.10,0,True,True,0,,True,True,False,True,True,False,1,1,0,8,0,,,1,,,,,,,,,images/1 (1502).jpg,B,B,,11,11,0,,673ccb0691efe91cd015dcf7,,,initial_study,7,7,0,359,277270,,4.66,DkO4KhklQsmLDA2EybXn,17,image-keyboard-response,1,1,0,"current target, not in next trial",,,,1920
,,,,,,2,r,,,,,,,3,,,,,1200,673ccb0691efe91cd015dcf7,,0.0-9.0-8.0-0.0,0,,,0,,,,,,,,,,,,,,,,,,,,,,,,Now judge if you have seen this pictures from the list you JUST studied before the digits,,,,,,,,673ccb0691efe91cd015dcf7,,,prompt,,,,,1302589,,21.75,Dl4ZqO4DDj0W6pd1OgLI,353,html-keyboard-response,,,,,,,,1920
,,,False,,,2,r,,,,,,T_target,3,,,,,1200,673ccb0691efe91cd015dcf7,1 (346).jpg,0.0-6.0-2.0-0.4,0,True,True,0,,True,True,False,True,True,False,2,2,0,4,0,,,1,,,,,,,,,images/1 (346).jpg,B,B,,5,5,0,,673ccb0691efe91cd015dcf7,,,initial_study,16,16,0,171,747091,,12.49,DmvPR8su6WyR0VJKoNb8,87,image-keyboard-response,1,1,0,"current target, not in next trial",,,,1920
,,,False,,,2,r,,,,,,T_target,3,,,,,1200,673ccb0691efe91cd015dcf7,1 (765).jpg,0.0-5.0-2.0-0.18,0,True,True,0,,True,True,False,True,True,False,1,1,0,7,0,,,1,,,,,,,,,images/1 (765).jpg,B,B,,19,19,0,,673ccb0691efe91cd015dcf7,,,initial_study,3,3,0,327,294219,,4.94,Do4TBz2UDLr36jTTMyLi,25,image-keyboard-response,1,1,0,"current target, not in next trial",,,,1920
,0.609375,,,,,2,r,True,,,,j,T_target,3,,,,,1200,673ccb0691efe91cd015dcf7,1 (1395).jpg,0.0-18.0-1.0-0.19,0,True,,0,True,,True,False,,True,False,,5,0,3,0,,,,,,,1,j,,589,,images/1 (1395).jpg,,B,,,19,0,,673ccb0691efe91cd015dcf7,,,finalTest,,25,0,128,2227449,,37.16,DpKnSsLj7FAdkeQu4DTQ,893,image-keyboard-response,,,,"current target, not in next trial",,,,1920
,0.5876777251184839,,,,,2,r,False,,,,f,F,3,,,,,1200,673ccb0691efe91cd015dcf7,1 (1473).jpg,0.0-20.0-1.0-0.6,0,True,,0,False,,False,False,,False,False,,0,0,5,0,,,1,,,,0,j,,931,,images/1 (1473).jpg,,FF,,,0,0,,673ccb0691efe91cd015dcf7,,,finalTest,,0,0,211,2304649,,38.45,DqKlNpuq67EecKgKcRkJ,976,image-keyboard-response,,,,final Foil,,,,1920
,0.6363636363636364,,,,,2,r,True,,,,f,F,3,,,,,1200,673ccb0691efe91cd015dcf7,1 (1665).jpg,0.0-17.0-1.0-0.38,0,True,,0,False,,False,False,,False,False,,0,0,2,0,,,1,,,,1,f,,520,,images/1 (1665).jpg,,FF,,,0,0,,673ccb0691efe91cd015dcf7,,,finalTest,,0,0,99,2203247,,36.76,DqtDIREhi5MPQu9SNMVE,864,image-keyboard-response,,,,final Foil,,,,1920
,0.5771428571428573,,,,,2,r,False,,,,f,F,3,,,,,1200,673ccb0691efe91cd015dcf7,1 (1771).jpg,0.0-19.0-1.0-0.18,0,True,,0,False,,False,False,,False,False,,0,0,4,9,,,1,,,,0,j,,1122,,images/1 (1771).jpg,,FF,,,0,0,,673ccb0691efe91cd015dcf7,,,finalTest,,0,0,175,2268758,,37.85,DrLaf5VWaIMe6fiZ7i2d,940,image-keyboard-response,,,,final Foil,,,,1920
,0.5853018372703417,,,,,2,r,True,,True,,j,T_nontarget,3,,,,,1200,673ccb0691efe91cd015dcf7,1 (150).jpg,0.0-23.0-1.0-0.32,0,True,,0,True,,True,False,,False,True,,8,9,8,0,,,,,,,1,j,,1213,,images/1 (150).jpg,,Cn,,,29,0,,673ccb0691efe91cd015dcf7,,,finalTest,,0,5,381,2476722,,41.32,DrO0PB4o8sIsAJCzRkTK,1146,image-keyboard-response,,,,"studied only, in next trial",,,,1920
,0.5837837837837844,,,,,2,r,True,,,,j,T_foil,3,,,,,1200,673ccb0691efe91cd015dcf7,1 (1507).jpg,0.0-23.0-1.0-0.21,0,True,,0,True,,False,False,,True,False,,3,False,8,3,,,,,,,1,j,,1134,,images/1 (1507).jpg,,Fn,,,0,0,,673ccb0691efe91cd015dcf7,,,finalTest,,5,0,370,2465895,,41.14,DucBRvhCVV2JpjqwzdoY,1135,image-keyboard-response,,,,"tested only, not in next trial",,,,1920
,0.631578947368421,,,,,2,r,False,,,,f,F,3,,,,,1200,673ccb0691efe91cd015dcf7,1 (2174).jpg,0.0-16.0-1.0-0.18,0,True,,0,False,,False,False,,False,False,,0,0,1,0,,,1,,,,0,j,,942,,images/1 (2174).jpg,,FF,,,0,0,,673ccb0691efe91cd015dcf7,,,finalTest,,0,0,19,2110134,,35.21,Dvu2UiKPzPngJV5WrBRT,784,image-keyboard-response,,,,final Foil,,,,1920
