accumulated_accuracy,anRepeatedItem,browser,browser_version,codeversion,condition,correct,correct_appear1,correct_appear2,correct_response,correct_response_key,current_assignmentTypesWithinList,designversion,fullscreen,height,id,id_picName,internal_node_id,is_changedfullscreen,is_chosenFinal,is_currentObjAppear1,is_finished,is_old,is_studied_appear0_initial,is_studied_appear1_initial,is_studied_appear2_initial,is_tested_appear0_initial,is_tested_appear1_initial,is_tested_appear2_initial,listNum_appear0_initial,listNum_appear1_initial,listNum_appear2_initial,listNum_infinalOrder,listNum_pickedFrom,microphone,mobile,num_CurrObjAppear,os,presPos_digit,question_order,recognition_correct,response,responsesum,rt,session_id,stimulus,stimulusConditionName_nPlusOneTrial,stimulusConditions,stimulus_id,studyPos_appear0_initial,studyPos_appear1_initial,studyPos_appear2_initial,study_id,subject_id,success,sum_currList,task,testPos_appear0_initial,testPos_appear1_initial,testPos_appear2_initial,testPos_final,time_elapsed,timepassed_mins,trial_document_id,trial_index,trial_type,type_code_studiedCurr,type_code_testiedCurr,type_code_testiedNext,type_comment,vsync_rate,webaudio,webcam,width
,False,,,2,r,,,,,,T_target,3,,1306,firestorenewtest,1 (1869).jpg,0.0-5.0-2.0-0.8,1,True,True,0,,True,True,False,True,True,False,1,1,0,2,0,,,1,,,,,,,,,images/1 (1869).jpg,B,B,,9,9,0,,firestorenewtest,,,initial_study,6,6,0,91,41992,0.72,0PNJ2lweNk2DKFeO0jGb,16,image-keyboard-response,1,1,0,"current target, not in next trial",,,,2228
,False,,,2,r,,,,,,T_target,3,,1306,firestorenewtest,1 (2070).jpg,0.0-5.0-2.0-0.15,1,True,True,0,,True,True,False,True,True,False,1,1,0,3,0,,,1,,,,,,,,,images/1 (2070).jpg,B,B,,16,16,0,,firestorenewtest,,,initial_study,29,29,0,125,63990,1.09,0bL8kgBEzau8BSKlYhN2,23,image-keyboard-response,1,1,0,"current target, not in next trial",,,,2228
,False,,,2,r,,,,,,T_nontarget,3,,1306,firestorenewtest,1 (1511).jpg,0.0-5.0-2.0-0.5,1,True,True,0,,True,True,False,False,False,False,1,1,0,9,0,,,1,,,,,,,,,images/1 (1511).jpg,A,A,,6,6,0,,firestorenewtest,,,initial_study,0,0,0,420,32990,0.57,183c2wVCfUh56YfjGry8,13,image-keyboard-response,1,0,0,"studied only, not in trial",,,,2228
,,,,2,r,,,,,,,3,,1728,firestorenewtest,,0.0-5.0-1.0-0.0,0,,,0,,,,,,,,,,,,,,,,,,,,,,,,"<div style=""font-size:60px;"">+</div>",,,,,,,,firestorenewtest,,,fixation,,,,,16831,0.30,4pcFtbDyqZsUc3bAonC0,7,html-keyboard-response,,,,,,,,3072
,False,,,2,r,,,,,,T_target,3,,1306,firestorenewtest,1 (2152).jpg,0.0-5.0-2.0-0.11,1,True,True,0,,True,True,False,True,True,False,1,1,0,7,0,,,1,,,,,,,,,images/1 (2152).jpg,B,B,,12,12,0,,firestorenewtest,,,initial_study,24,24,0,342,51989,0.89,5zwJzQpOfh9TeRmEm7j2,19,image-keyboard-response,1,1,0,"current target, not in next trial",,,,2228
,,,,2,r,,,,,,,3,,1306,firestorenewtest,,0.0-5.0-5.0-0.0,1,,,0,,,,,,,,1,,,,,,,,,1,,,,,,,7,,,7,,,,,firestorenewtest,,52,digitPresentation,,,,,1334989,22.27,9RlnU1LhgD7qRAWQqxmn,40,html-keyboard-response,,,,,,,,2228
,False,,,2,r,,,,,,T_target,3,,1306,firestorenewtest,1 (9).jpg,0.0-5.0-2.0-0.12,1,True,True,0,,True,True,False,True,True,False,1,1,0,6,0,,,1,,,,,,,,,images/1 (9).jpg,B,B,,13,13,0,,firestorenewtest,,,initial_study,1,1,0,283,54990,0.94,9XARwqXKl7HvdDFrkngy,20,image-keyboard-response,1,1,0,"current target, not in next trial",,,,2228
,False,,,2,r,,,,,,T_nontarget,3,,1306,firestorenewtest,1 (653).jpg,0.0-5.0-2.0-0.16,1,True,True,0,,True,True,False,False,False,False,1,1,0,9,0,,,1,,,,,,,,,images/1 (653).jpg,A,A,,17,17,0,,firestorenewtest,,,initial_study,0,0,0,444,66990,1.14,9jh3Mp02M9N2xnOqBX3w,24,image-keyboard-response,1,0,0,"studied only, not in trial",,,,2228
,False,,,2,r,,,,,,T_nontarget,3,,1306,firestorenewtest,1 (1857).jpg,0.0-5.0-2.0-0.0,1,True,True,0,,True,True,False,False,False,False,1,1,0,3,0,,,1,,,,,,,,,images/1 (1857).jpg,A,A,,1,1,0,,firestorenewtest,,,initial_study,0,0,0,143,18836,0.34,Ae4meIylMd4gSCO4MjCt,8,image-keyboard-response,1,0,0,"studied only, not in trial",,,,2228
,,,,2,r,,,,,,,3,,1306,firestorenewtest,,0.0-5.0-5.0-0.7,1,,,0,,,,,,,,1,,,,,,,,,8,,,,,,,5,,,5,,,,,firestorenewtest,,52,digitPresentation,,,,,1570990,26.21,Beo7i2wtS9gSYKILlbih,47,html-keyboard-response,,,,,,,,2228
,,,,2,r,,,,,,,3,,1728,firestorenewtest,,0.0-5.0-0.0-0.0-0.0,0,,,0,,,,,,,,,,,,,,,,,,,,enter,,839,,"

    <p style='text-align: justify;color: black;background: white;font: caption-;'>1. A list of 30 pictures will appear on the screen one at a time. Study the pictures as they appear.</p>
    <p style='text-align: justify;color: black;background: white;font: caption-;'>2. After a brief blank period, you will see a series of numbers. Add these numbers as they appear. When prompted with ""TYPE THE SUM,"" use the number keys to enter your answer.</p>
     
    <p style='text-align: justify; color: black; background: white; font: caption-;'> 
    3. Next, you will see a series of test pictures from the list you just studied. For each picture, press the <strong>""J""</strong> key if you recognize it as one you have seen in the current list. Press the <strong>""F""</strong> key if you don’t recognize it as one from the current list. <br>   
      <strong>Accumulated accuracy will be displayed throughout the experiment. Please pay attention and try to get an averaged performance higher than 60% (chance level is 50%).</strong></p><br>
    <p style='text-align: justify; color: black; background: white; font: caption-;'>
    You will begin with a practice list, followed by nine formal test lists. <strong>For each test, respond based only on the list you JUST studied. If a picture appeared in a previous list but not the current one, press the <strong>""F""</strong> key.</strong>
    </p>

<p style='text-align: justify;color: black;background: white;font: caption-;'>Do not worry if you are unsure about some test pictures. This is normal, but please make your best guess.</p>
    <p style='text-align: justify;color: black;background: white;font: caption-;'>Press the ""Enter"" key to start the practice list.</p>
      
      ",,,,,,,,firestorenewtest,,,instructions_practice,,,,,10873,0.21,Bx5EOmA4tBx5WRitgp5U,5,html-keyboard-response,,,,,,,,3072
,False,,,2,r,,,,,,T_target,3,,1306,firestorenewtest,1 (1497).jpg,0.0-5.0-2.0-0.7,1,True,True,0,,True,True,False,True,True,False,1,1,0,6,0,,,1,,,,,,,,,images/1 (1497).jpg,B,B,,8,8,0,,firestorenewtest,,,initial_study,2,2,0,291,38990,0.67,CEe8caIPvzcI9WJDml3I,15,image-keyboard-response,1,1,0,"current target, not in next trial",,,,2228
,True,,,2,r,,,,,,T_nontarget,3,,1306,firestorenewtest,1 (1677).jpg,0.0-5.0-2.0-0.27,1,True,True,0,,True,True,False,False,False,True,1,1,2,7,0,,,1,,,,,,,,,images/1 (1677).jpg,Cn+1,Cn,,28,28,0,,firestorenewtest,,,initial_study,0,0,15,329,794989,13.27,DHejfl7pxUE3J9lZehsr,35,image-keyboard-response,1,0,1,"studied only, in next trial",,,,2228
,True,,,2,r,,,,,,T_nontarget,3,,1306,firestorenewtest,1 (624).jpg,0.0-5.0-2.0-0.2,1,False,True,0,,True,True,False,False,False,True,1,1,2,,0,,,1,,,,,,,,,images/1 (624).jpg,Cn+1,Cn,,3,3,0,,firestorenewtest,,,initial_study,0,0,23,0,23989,0.42,E1KXABcByVgf1s6xjRVz,10,image-keyboard-response,1,0,1,"studied only, in next trial",,,,2228
,False,,,2,r,,,,,,T_nontarget,3,,1306,firestorenewtest,1 (915).jpg,0.0-5.0-2.0-0.17,1,True,True,0,,True,True,False,False,False,False,1,1,0,7,0,,,1,,,,,,,,,images/1 (915).jpg,A,A,,18,18,0,,firestorenewtest,,,initial_study,0,0,0,344,69990,1.19,FoyZCu36Mrp1PoYvN1SE,25,image-keyboard-response,1,0,0,"studied only, not in trial",,,,2228
,True,,,2,r,,,,,,T_target,3,,1306,firestorenewtest,1 (1784).jpg,0.0-5.0-2.0-0.13,1,True,True,0,,True,True,False,True,True,True,1,1,2,3,0,,,1,,,,,,,,,images/1 (1784).jpg,Dn+1,Dn,,14,14,0,,firestorenewtest,,,initial_study,16,16,10,121,57990,0.99,Fwv3GU1jGL9xCvRefW3Y,21,image-keyboard-response,1,1,1,"current target, in next trial",,,,2228
,False,,,2,r,,,,,,T_target,3,,1306,firestorenewtest,1 (1285).jpg,0.0-5.0-2.0-0.25,1,True,True,0,,True,True,False,True,True,False,1,1,0,2,0,,,1,,,,,,,,,images/1 (1285).jpg,B,B,,26,26,0,,firestorenewtest,,,initial_study,20,20,0,78,554989,9.27,HhPRd1hNKzFwqgN1Jz0H,33,image-keyboard-response,1,1,0,"current target, not in next trial",,,,2228
,False,,,2,r,,,,,,T_target,3,,1306,firestorenewtest,1 (290).jpg,0.0-5.0-2.0-0.20,1,True,True,0,,True,True,False,True,True,False,1,1,0,7,0,,,1,,,,,,,,,images/1 (290).jpg,B,B,,21,21,0,,firestorenewtest,,,initial_study,22,22,0,308,78991,1.34,IAsWthVSkGrtC28aUqEm,28,image-keyboard-response,1,1,0,"current target, not in next trial",,,,2228
,,,,2,r,,,,,,,3,,1306,firestorenewtest,,0.0-5.0-4.0-0.0,1,,,0,,,,,,,,,,,,,,,,,,,,,,,,"<div style=""font-size:60px;"">+</div>",,,,,,,,firestorenewtest,,,fixation,,,,,1274989,21.27,JFKAzkAS5EJTsI1YHETu,39,html-keyboard-response,,,,,,,,2228
,,,,2,r,,,,,,,3,,1306,firestorenewtest,,0.0-5.0-5.0-0.5,1,,,0,,,,,,,,1,,,,,,,,,6,,,,,,,4,,,4,,,,,firestorenewtest,,52,digitPresentation,,,,,1563991,26.09,JUiI4M44GXbV4LrgDb7C,45,html-keyboard-response,,,,,,,,2228
,False,,,2,r,,,,,,T_target,3,,1306,firestorenewtest,1 (435).jpg,0.0-5.0-2.0-0.24,1,False,True,0,,True,True,False,True,True,False,1,1,0,,0,,,1,,,,,,,,,images/1 (435).jpg,B,B,,25,25,0,,firestorenewtest,,,initial_study,9,9,0,0,434990,7.27,JfAFZBUJ19lAbuZLK58W,32,image-keyboard-response,1,1,0,"current target, not in next trial",,,,2228
,True,,,2,r,,,,,,T_target,3,,1306,firestorenewtest,1 (1180).jpg,0.0-5.0-2.0-0.14,1,False,True,0,,True,True,False,True,True,True,1,1,2,,0,,,1,,,,,,,,,images/1 (1180).jpg,Dn+1,Dn,,15,15,0,,firestorenewtest,,,initial_study,15,15,21,0,60990,1.04,KdSoyULZCbixXVq2FGuP,22,image-keyboard-response,1,1,1,"current target, in next trial",,,,2228
,,,,2,r,,,,,,,3,,1728,firestorenewtest,,0.0-5.0-0.0-0.1-0.1,0,,,0,,,,,,,,,,,,,,,,,,,,enter,,4747,,"

    <p style='text-align: justify;color: black;background: white;font: caption-;'>1. A list of 30 pictures will appear on the screen one at a time. Study the pictures as they appear.</p>
    <p style='text-align: justify;color: black;background: white;font: caption-;'>2. After a brief blank period, you will see a series of numbers. Add these numbers as they appear. When prompted with ""TYPE THE SUM,"" use the number keys to enter your answer.</p>
     
    <p style='text-align: justify; color: black; background: white; font: caption-;'> 
    3. Next, you will see a series of test pictures from the list you just studied. For each picture, press the <strong>""J""</strong> key if you recognize it as one you have seen in the current list. Press the <strong>""F""</strong> key if you don’t recognize it as one from the current list. <br>   
      <strong>Accumulated accuracy will be displayed throughout the experiment. Please pay attention and try to get an averaged performance higher than 60% (chance level is 50%).</strong></p><br>
    <p style='text-align: justify; color: black; background: white; font: caption-;'>
    You will begin with a practice list, followed by nine formal test lists. <strong>For each test, respond based only on the list you JUST studied. If a picture appeared in a previous list but not the current one, press the <strong>""F""</strong> key.</strong>
    </p>

<p style='text-align: justify;color: black;background: white;font: caption-;'>Do not worry if you are unsure about some test pictures. This is normal, but please make your best guess.</p>
    <p style='text-align: justify;color: black;background: white;font: caption-;'>Press the ""Enter"" key to start the practice list.</p>
      
      ",,,,,,,,firestorenewtest,,,instructions_practice,,,,,15730,0.29,KgtNpCMPby78DieBtYxJ,6,html-keyboard-response,,,,,,,,3072
,,,,2,r,,,,,,,3,,1306,firestorenewtest,,0.0-5.0-5.0-0.1,1,,,0,,,,,,,,1,,,,,,,,,2,,,,,,,9,,,9,,,,,firestorenewtest,,52,digitPresentation,,,,,1454989,24.27,L2B6vT8rR3Z45MnDZMI4,41,html-keyboard-response,,,,,,,,2228
,,,,2,r,,,,,,,3,,1728,firestorenewtest,,0.0-4.0,0,,,0,,,,,,,,,,,,,,,,,,,,,,1282,,,,,,,,,,firestorenewtest,True,,,,,,,10032,0.19,NVY8zatw5V8bq2c0HWHM,4,fullscreen,,,,,,,,3072
,False,,,2,r,,,,,,T_nontarget,3,,1306,firestorenewtest,1 (353).jpg,0.0-5.0-2.0-0.26,1,True,True,0,,True,True,False,False,False,False,1,1,0,4,0,,,1,,,,,,,,,images/1 (353).jpg,A,A,,27,27,0,,firestorenewtest,,,initial_study,0,0,0,203,674990,11.27,NdYd5enSw2IN7DimM80Q,34,image-keyboard-response,1,0,0,"studied only, not in trial",,,,2228
,False,,,2,r,,,,,,T_nontarget,3,,1306,firestorenewtest,1 (2028).jpg,0.0-5.0-2.0-0.19,1,False,True,0,,True,True,False,False,False,False,1,1,0,,0,,,1,,,,,,,,,images/1 (2028).jpg,A,A,,20,20,0,,firestorenewtest,,,initial_study,0,0,0,0,75990,1.29,OYvohqlv1IcHExX9ZGjh,27,image-keyboard-response,1,0,0,"studied only, not in trial",,,,2228
,,,,2,r,,,,,,,3,,1306,firestorenewtest,,0.0-5.0-5.0-0.2,1,,,0,,,,,,,,1,,,,,,,,,3,,,,,,,9,,,9,,,,,firestorenewtest,,52,digitPresentation,,,,,1554302,25.93,OgekPQ7SaZfglIslYNx9,42,html-keyboard-response,,,,,,,,2228
,,chrome,135.0.0,2,r,,,,,,,3,True,1307,firestorenewtest,,0.0-2.0,0,,,0,,,,,,,,,,,,,False,False,,Linux,,,,,,,,,,,,,,,,firestorenewtest,,,,,,,,4820,0.10,QsltXelZfCMhC6JbDN7c,2,browser-check,,,,,60.98,True,False,2228
,,,,2,r,,,,,,,3,,1307,firestorenewtest,,0.0-3.0,0,,,0,,,,,,,,,,,,,,,,,,[0],,"{'consent': ""I have read and understand this information and agree to join this study. <p style='text-align: left'> Clicking to confirm, then press 'enter' to continue.</p>""}",,2924,,,,,,,,,,firestorenewtest,,,,,,,,7747,0.15,UeRRAOveBibljkVvrCcg,3,survey-multi-choice,,,,,,,,2228
,False,,,2,r,,,,,,T_nontarget,3,,1306,firestorenewtest,1 (920).jpg,0.0-5.0-2.0-0.3,1,False,True,0,,True,True,False,False,False,False,1,1,0,,0,,,1,,,,,,,,,images/1 (920).jpg,A,A,,4,4,0,,firestorenewtest,,,initial_study,0,0,0,0,26991,0.47,VLMiyYlurMeXKQpyHber,11,image-keyboard-response,1,0,0,"studied only, not in trial",,,,2228
,False,,,2,r,,,,,,T_nontarget,3,,1306,firestorenewtest,1 (542).jpg,0.0-5.0-2.0-0.21,1,False,True,0,,True,True,False,False,False,False,1,1,0,,0,,,1,,,,,,,,,images/1 (542).jpg,A,A,,22,22,0,,firestorenewtest,,,initial_study,0,0,0,0,81990,1.39,WQNctGjQ5XAPKkZTuSdX,29,image-keyboard-response,1,0,0,"studied only, not in trial",,,,2228
,False,,,2,r,,,,,,T_nontarget,3,,1306,firestorenewtest,1 (1917).jpg,0.0-5.0-2.0-0.4,1,True,True,0,,True,True,False,False,False,False,1,1,0,5,0,,,1,,,,,,,,,images/1 (1917).jpg,A,A,,5,5,0,,firestorenewtest,,,initial_study,0,0,0,216,29991,0.52,ZzzWW2GcuiYPdSailLTt,12,image-keyboard-response,1,0,0,"studied only, not in trial",,,,2228
,,,,2,r,,,,,,,3,,1306,firestorenewtest,,0.0-5.0-3.0-0.0,1,,,0,,,,,,,,,,,,,,,,,,,,,,,,Summing up the digits as they appear,,,,,,,,firestorenewtest,,,prompt,,,,,1154989,19.27,aEkSg3cz0G2JoAp858Wh,38,html-keyboard-response,,,,,,,,2228
,True,,,2,r,,,,,,T_nontarget,3,,1306,firestorenewtest,1 (1943).jpg,0.0-5.0-2.0-0.9,1,True,True,0,,True,True,False,False,False,True,1,1,2,2,0,,,1,,,,,,,,,images/1 (1943).jpg,Cn+1,Cn,,10,10,0,,firestorenewtest,,,initial_study,0,0,2,95,44990,0.77,eoxbfzECsFtWrEw1Q7QE,17,image-keyboard-response,1,0,1,"studied only, in next trial",,,,2228
,False,,,2,r,,,,,,T_target,3,,1306,firestorenewtest,1 (2361).jpg,0.0-5.0-2.0-0.6,1,False,True,0,,True,True,False,True,True,False,1,1,0,,0,,,1,,,,,,,,,images/1 (2361).jpg,B,B,,7,7,0,,firestorenewtest,,,initial_study,25,25,0,0,35990,0.62,ewYMwxtphUwRZvGx2AvZ,14,image-keyboard-response,1,1,0,"current target, not in next trial",,,,2228
,False,,,2,r,,,,,,T_target,3,,1306,firestorenewtest,1 (2024).jpg,0.0-5.0-2.0-0.10,1,False,True,0,,True,True,False,True,True,False,1,1,0,,0,,,1,,,,,,,,,images/1 (2024).jpg,B,B,,11,11,0,,firestorenewtest,,,initial_study,13,13,0,0,47990,0.82,ftuxiNFgnzcvFgvaG7wB,18,image-keyboard-response,1,1,0,"current target, not in next trial",,,,2228
,,,,2,r,,,,,,,3,,1306,firestorenewtest,,0.0-5.0-5.0-0.6,1,,,0,,,,,,,,1,,,,,,,,,7,,,,,,,6,,,6,,,,,firestorenewtest,,52,digitPresentation,,,,,1567989,26.16,gD6Hl5ngoImx69sHk25k,46,html-keyboard-response,,,,,,,,2228
,,,,2,r,,,,,,,3,,1306,firestorenewtest,,0.0-5.0-5.0-0.3,1,,,0,,,,,,,,1,,,,,,,,,4,,,,,,,8,,,8,,,,,firestorenewtest,,52,digitPresentation,,,,,1557989,25.99,gI2X8LtP0yj84cyfLSeU,43,html-keyboard-response,,,,,,,,2228
,True,,,2,r,,,,,,T_target,3,,1306,firestorenewtest,1 (2337).jpg,0.0-5.0-2.0-0.22,1,True,True,0,,True,True,False,True,True,True,1,1,2,8,0,,,1,,,,,,,,,images/1 (2337).jpg,Dn+1,Dn,,23,23,0,,firestorenewtest,,,initial_study,5,5,22,396,194989,3.27,jx0JJ3oSPd3vCXxL9Bdz,30,image-keyboard-response,1,1,1,"current target, in next trial",,,,2228
,False,,,2,r,,,,,,T_nontarget,3,,1306,firestorenewtest,1 (2011).jpg,0.0-5.0-2.0-0.23,1,False,True,0,,True,True,False,False,False,False,1,1,0,,0,,,1,,,,,,,,,images/1 (2011).jpg,A,A,,24,24,0,,firestorenewtest,,,initial_study,0,0,0,0,314989,5.27,lXh6K5uwpBx9Rux41Y51,31,image-keyboard-response,1,0,0,"studied only, not in trial",,,,2228
,False,,,2,r,,,,,,T_target,3,,1306,firestorenewtest,1 (618).jpg,0.0-5.0-2.0-0.29,1,True,True,0,,True,True,False,True,True,False,1,1,0,2,0,,,1,,,,,,,,,images/1 (618).jpg,B,B,,30,30,0,,firestorenewtest,,,initial_study,18,18,0,87,1034989,17.27,lYIx1jjJIx8u2H9Yk163,37,image-keyboard-response,1,1,0,"current target, not in next trial",,,,2228
,,,,2,r,,,,,,,3,,1306,firestorenewtest,,0.0-5.0-5.0-0.4,1,,,0,,,,,,,,1,,,,,,,,,5,,,,,,,4,,,4,,,,,firestorenewtest,,52,digitPresentation,,,,,1560990,26.04,m6NT9aMljOxKO6LJs2Hr,44,html-keyboard-response,,,,,,,,2228
,,,,2,r,,,,,,,3,,1307,firestorenewtest,,0.0-1.0,0,,,0,,,,,,,,,,,,,,,,,,,,{'Q0': 'firestorenewtest'},,3390,,,,,,,,,,firestorenewtest,,,enterid,,,,,3825,0.09,me3kJzKvFySqMtLq7g1Q,1,survey-text,,,,,,,,2228
,False,,,2,r,,,,,,T_nontarget,3,,1306,firestorenewtest,1 (739).jpg,0.0-5.0-2.0-0.28,1,True,True,0,,True,True,False,False,False,False,1,1,0,1,0,,,1,,,,,,,,,images/1 (739).jpg,A,A,,29,29,0,,firestorenewtest,,,initial_study,0,0,0,20,914989,15.27,nfaxuJQzKlymL7fLFsZt,36,image-keyboard-response,1,0,0,"studied only, not in trial",,,,2228
,False,,,2,r,,,,,,T_nontarget,3,,1306,firestorenewtest,1 (1032).jpg,0.0-5.0-2.0-0.18,1,True,True,0,,True,True,False,False,False,False,1,1,0,3,0,,,1,,,,,,,,,images/1 (1032).jpg,A,A,,19,19,0,,firestorenewtest,,,initial_study,0,0,0,129,72990,1.24,tiLf3qC9z2UApqVZeEkB,26,image-keyboard-response,1,0,0,"studied only, not in trial",,,,2228
,False,,,2,r,,,,,,T_target,3,,1306,firestorenewtest,1 (632).jpg,0.0-5.0-2.0-0.1,1,False,True,0,,True,True,False,True,True,False,1,1,0,,0,,,1,,,,,,,,,images/1 (632).jpg,B,B,,2,2,0,,firestorenewtest,,,initial_study,3,3,0,0,20939,0.37,vfrN3LwdjX0dS5pXWlRx,9,image-keyboard-response,1,1,0,"current target, not in next trial",,,,2228
,False,,,2,r,,,,,,T_nontarget,3,,1307,thisis_cool,1 (744).jpg,0.0-14.0-2.0-0.5,1,False,True,0,,True,True,False,False,False,False,10,10,0,,0,,,1,,,,,,,,,images/1 (744).jpg,A,A,,6,6,0,,thisis_cool,,,initial_study,0,0,0,0,19970,0.34,01UT9p5uhlxcxKw6MarZ,696,image-keyboard-response,1,0,0,"studied only, not in trial",,,,2228
0,,,,2,r,False,,False,,j,T_nontarget,3,,1307,thisis_cool,1 (97).jpg,0.0-18.0-1.0-0.10,1,True,,0,True,,True,False,,False,True,,1,2,3,0,,,,,,,0,,,,,images/1 (97).jpg,,Cn,,,16,0,,thisis_cool,,,finalTest,,0,17,119,22453,0.38,036usGp9pN79jfkR6395,884,image-keyboard-response,,,,"studied only, in next trial",,,,2228
0,,,,2,r,False,,,,f,F,3,,1307,thisis_cool,1 (739).jpg,0.0-21.0-1.0-0.2,1,True,,0,False,,False,False,,False,False,,0,0,6,0,,,1,,,,0,,,,,images/1 (739).jpg,,FF,,,0,0,,thisis_cool,,,finalTest,,0,0,255,24065,0.41,04zT8NzqSi09R408rCjC,1020,image-keyboard-response,,,,final Foil,,,,2228
,,,,2,r,,,,,,,3,,1307,thisis_cool,,0.0-12.0-7.0-0.0,1,,,0,,,,,,,,,,,,,,,,,,,,,,,,<p background:white>INCORRECT!</p>,,,,,,,,thisis_cool,,,promptfeedback,,,,,18001,0.31,06OibdEhDuyWbRADtyg9,580,html-keyboard-response,,,,,,,,2228
0,,,,2,r,False,,,,j,T_nontarget,3,,1307,thisis_cool,1 (1777).jpg,0.0-19.0-1.0-0.24,1,True,,0,True,,True,False,,False,False,,9,0,4,0,,,,,,,0,,,,,images/1 (1777).jpg,,A,,,6,0,,thisis_cool,,,finalTest,,0,0,181,23184,0.40,07Jj7oiBBYsFkz1vi812,946,image-keyboard-response,,,,"studied only, not in trial",,,,2228
,,,,2,r,,,,,,,3,,1728,thisis_cool,,0.0-4.0,0,,,0,,,,,,,,,,,,,,,,,,,,,,989,,,,,,,,,,thisis_cool,True,,,,,,,8063,0.14,095ZYu8lx07js3wDaxXa,4,fullscreen,,,,,,,,3072
,False,,,2,r,,,,,,T_target,3,,1307,thisis_cool,1 (1792).jpg,0.0-8.0-2.0-0.6,1,True,True,0,,True,True,False,True,True,False,4,4,0,9,0,,,1,,,,,,,,,images/1 (1792).jpg,B,B,,7,7,0,,thisis_cool,,,initial_study,27,27,0,415,12861,0.22,0GAD0q4TGy3bALl24KLH,241,image-keyboard-response,1,1,0,"current target, not in next trial",,,,2228
0,False,,,2,r,False,False,,,j,T_target,3,,1307,thisis_cool,1 (1919).jpg,0.0-5.0-10.0-0.29,1,False,True,0,False,True,True,False,True,True,False,1,1,False,,0,,,1,,,,0,,,,,images/1 (1919).jpg,B,B,,15,15,0,,thisis_cool,,,initialTest_response,30,30,0,0,10375,0.18,0In56lBdFsnwJ9VRCory,80,image-keyboard-response,1,1,0,"current target, not in next trial",,,,2228
0,,,,2,r,False,,,,j,T_target,3,,1307,thisis_cool,1 (641).jpg,0.0-20.0-1.0-0.14,1,True,,0,True,,True,False,,True,False,,8,0,5,0,,,,,,,0,,,,,images/1 (641).jpg,,B,,,1,0,,thisis_cool,,,finalTest,,17,0,219,23632,0.40,0JJLbyNOAueDYOqdNuqq,984,image-keyboard-response,,,,"current target, not in next trial",,,,2228
0,,,,2,r,False,,,,j,T_target,3,,1307,thisis_cool,1 (1877).jpg,0.0-25.0-1.0-0.1,1,True,,0,True,,True,False,,True,False,,2,0,10,0,,,,,,,0,,,,,images/1 (1877).jpg,,B,,,14,0,,thisis_cool,,,finalTest,,18,0,446,26304,0.45,0N6HvfiRL0CKFwT4EG3O,1211,image-keyboard-response,,,,"current target, not in next trial",,,,2228
,,,,2,r,,,,,,,3,,1307,thisis_cool,,0.0-8.0-0.0-0.0,1,,,0,,,,,,,,,,,,,,,,,,,,,,,,"
    <p style='text-align: justify;color: black;background: white;font: caption-;''>
        Press the 'enter' key to see the next list of pictures. </p>
    ",,,,,,,,thisis_cool,,,,,,,,12758,0.22,0OGDSvMZm2g64rW8GGbF,233,html-keyboard-response,,,,,,,,2228
0,,,,2,r,False,False,False,,j,T_target,3,,1307,thisis_cool,1 (736).jpg,0.0-20.0-1.0-0.23,1,True,,0,True,,True,False,,True,True,,4,5,5,0,,,,,,,0,,,,,images/1 (736).jpg,,Dn,,,18,0,,thisis_cool,,,finalTest,,8,17,228,23737,0.40,0QQ6RTO8aft5FLa6dpFU,993,image-keyboard-response,,,,"current target, in next trial",,,,2228
0,,,,2,r,False,,,,j,T_nontarget,3,,1307,thisis_cool,1 (1534).jpg,0.0-25.0-1.0-0.25,1,True,,0,True,,True,False,,False,False,,9,0,10,0,,,,,,,0,,,,,images/1 (1534).jpg,,A,,,30,0,,thisis_cool,,,finalTest,,0,0,470,26580,0.45,0TxOyT9aC77TDNngaVS6,1235,image-keyboard-response,,,,"studied only, not in trial",,,,2228
,,,,2,r,,,,,,,3,,1307,thisis_cool,,0.0-14.0-5.0-0.6,1,,,0,,,,,,,,10,,,,,,,,,7,,,,,,,5,,,5,,,,,thisis_cool,,47,digitPresentation,,,,,20345,0.35,0TzeHD3l0nQRiSjM0PC2,729,html-keyboard-response,,,,,,,,2228
0,False,,,2,r,False,False,,,j,T_target,3,,1307,thisis_cool,1 (556).jpg,0.0-13.0-10.0-0.19,1,True,True,0,False,True,True,False,True,True,False,9,9,False,,0,,,1,,,,0,,,,,images/1 (556).jpg,B,B,,11,11,0,,thisis_cool,,,initialTest_response,20,20,0,356,19642,0.34,0UVt1tGPP4ZH3HlK90Zj,678,image-keyboard-response,1,1,0,"current target, not in next trial",,,,2228
0,True,,,2,r,False,,False,,f,T_foil,3,,1307,thisis_cool,1 (2191).jpg,0.0-14.0-10.0-0.24,1,True,False,0,False,False,True,False,True,False,False,10,9,0,,0,,,2,,,,0,,,,,images/1 (2191).jpg,Cn,Cn,,0,1,0,,thisis_cool,,,initialTest_response,25,0,0,37,20931,0.36,0cFUs6CIJrZc0tB68X4k,759,image-keyboard-response,1,0,1,"studied only, in next trial, from last trial",,,,2228
0,True,,,2,r,False,False,,,f,T_foil,3,,1307,thisis_cool,1 (924).jpg,0.0-8.0-10.0-0.2,1,True,True,0,False,False,False,False,True,True,True,4,4,5,6,0,,,1,,,,0,,,,,images/1 (924).jpg,Fnn+1,Fnn,,0,0,0,,thisis_cool,,,initialTest_response,3,3,5,260,13349,0.23,0rtlHLgqvmhaA10omZPz,281,image-keyboard-response,0,1,1,"tested only, in next trial",,,,2228
0,False,,,2,r,False,False,,,j,T_target,3,,1307,thisis_cool,1 (1799).jpg,0.0-12.0-10.0-0.23,1,True,True,0,False,True,True,False,True,True,False,8,8,False,,0,,,1,,,,0,,,,,images/1 (1799).jpg,B,B,,16,16,0,,thisis_cool,,,initialTest_response,24,24,0,300,18542,0.32,0zbpQg44rKyBR16DB8id,606,image-keyboard-response,1,1,0,"current target, not in next trial",,,,2228
0,,,,2,r,False,,,,f,F,3,,1307,thisis_cool,1 (1171).jpg,0.0-22.0-1.0-0.9,1,True,,0,False,,False,False,,False,False,,0,0,7,7,,,1,,,,0,,,,,images/1 (1171).jpg,,FF,,,0,0,,thisis_cool,,,finalTest,,0,0,310,24725,0.42,0zsyUxgSH8mLjrTFCxrY,1075,image-keyboard-response,,,,final Foil,,,,2228
0,,,,2,r,False,False,False,,j,T_target,3,,1307,thisis_cool,1 (1247).jpg,0.0-18.0-1.0-0.26,1,True,,0,True,,True,False,,True,True,,8,9,3,0,,,,,,,0,,,,,images/1 (1247).jpg,,Dn,,,8,0,,thisis_cool,,,finalTest,,1,9,135,22641,0.39,14OAUHGIDAWfXYfs09Vs,900,image-keyboard-response,,,,"current target, in next trial",,,,2228
0,True,,,2,r,False,False,,,j,T_target,3,,1307,thisis_cool,1 (511).jpg,0.0-9.0-10.0-0.20,1,True,True,0,False,True,True,False,True,True,True,5,5,6,,0,,,1,,,,0,,,,,images/1 (511).jpg,Dn+1,Dn,,18,18,0,,thisis_cool,,,initialTest_response,21,21,23,41,14941,0.26,15O8NOSaKVOshX3BICGR,375,image-keyboard-response,1,1,1,"current target, in next trial",,,,2228
0,False,,,2,r,False,False,,,j,T_target,3,,1307,thisis_cool,1 (981).jpg,0.0-11.0-10.0-0.5,1,True,True,0,False,True,True,False,True,True,False,7,7,False,,0,,,1,,,,0,,,,,images/1 (981).jpg,B,B,,18,18,0,,thisis_cool,,,initialTest_response,6,6,0,81,16967,0.29,1CYsh5EmhuWQAbGDi44D,512,image-keyboard-response,1,1,0,"current target, not in next trial",,,,2228
,False,,,2,r,,,,,,T_target,3,,1307,thisis_cool,1 (235).jpg,0.0-10.0-2.0-0.13,1,True,True,0,,True,True,False,True,True,False,6,6,0,9,0,,,1,,,,,,,,,images/1 (235).jpg,B,B,,14,14,0,,thisis_cool,,,initial_study,11,11,0,432,15333,0.26,1CbHZeZ24wvvRjPV9YTt,400,image-keyboard-response,1,1,0,"current target, not in next trial",,,,2228
0,,,,2,r,False,,,,j,T_nontarget,3,,1307,thisis_cool,1 (298).jpg,0.0-19.0-1.0-0.47,1,True,,0,True,,True,False,,False,False,,6,0,4,0,,,,,,,0,,,,,images/1 (298).jpg,,A,,,10,0,,thisis_cool,,,finalTest,,0,0,204,23460,0.40,1Erl9KeeFPkEmg1UscC5,969,image-keyboard-response,,,,"studied only, not in trial",,,,2228
,False,,,2,r,,,,,,T_target,3,,1307,thisis_cool,1 (1602).jpg,0.0-9.0-2.0-0.9,1,False,True,0,,True,True,False,True,True,False,5,5,0,,0,,,1,,,,,,,,,images/1 (1602).jpg,B,B,,10,10,0,,thisis_cool,,,initial_study,22,22,0,0,14104,0.24,1JVl5mZIlZblSZiDgc65,320,image-keyboard-response,1,1,0,"current target, not in next trial",,,,2228
0,,,,2,r,False,,,,f,F,3,,1307,thisis_cool,1 (329).jpg,0.0-23.0-1.0-0.32,1,True,,0,False,,False,False,,False,False,,0,0,8,0,,,1,,,,0,,,,,images/1 (329).jpg,,FF,,,0,0,,thisis_cool,,,finalTest,,0,0,381,25549,0.43,1LfAZBhcLK4ih3gCgJIF,1146,image-keyboard-response,,,,final Foil,,,,2228
0,,,,2,r,False,,,,j,T_target,3,,1307,thisis_cool,1 (1400).jpg,0.0-22.0-1.0-0.0,1,True,,0,True,,True,False,,True,False,,1,0,7,0,,,,,,,0,,,,,images/1 (1400).jpg,,B,,,5,0,,thisis_cool,,,finalTest,,3,0,301,24615,0.42,1OzJn71H0QZzPABODOmt,1066,image-keyboard-response,,,,"current target, not in next trial",,,,2228
0,,,,2,r,False,,,,f,F,3,,1307,thisis_cool,1 (644).jpg,0.0-19.0-1.0-0.17,1,True,,0,False,,False,False,,False,False,,0,0,4,10,,,1,,,,0,,,,,images/1 (644).jpg,,FF,,,0,0,,thisis_cool,,,finalTest,,0,0,174,23105,0.39,1RVjf4vXF5BlVSRkGXZx,939,image-keyboard-response,,,,final Foil,,,,2228
0,,,,2,r,False,,,,f,F,3,,1307,thisis_cool,1 (793).jpg,0.0-18.0-1.0-0.17,1,True,,0,False,,False,False,,False,False,,0,0,3,4,,,1,,,,0,,,,,images/1 (793).jpg,,FF,,,0,0,,thisis_cool,,,finalTest,,0,0,126,22539,0.38,1Uja9I62psxKIoVxpcXu,891,image-keyboard-response,,,,final Foil,,,,2228
0,False,,,2,r,False,False,,,f,T_foil,3,,1307,thisis_cool,1 (1200).jpg,0.0-14.0-10.0-0.17,1,True,True,0,False,False,False,False,True,True,False,10,10,0,1,0,,,1,,,,0,,,,,images/1 (1200).jpg,Fn+1,Fn,,0,0,0,,thisis_cool,,,initialTest_response,18,18,0,23,20777,0.36,1djq5l1QwJh0Ai07Xlhc,752,image-keyboard-response,0,1,0,"tested only, not in next trial",,,,2228
0,,,,2,r,False,,,,j,T_target,3,,1307,thisis_cool,1 (1586).jpg,0.0-21.0-1.0-0.15,1,True,,0,True,,True,False,,True,False,,10,0,6,0,,,,,,,0,,,,,images/1 (1586).jpg,,B,,,30,0,,thisis_cool,,,finalTest,,22,0,268,24225,0.41,1j8QCzXvoB1hV0Jl015C,1033,image-keyboard-response,,,,"current target, not in next trial",,,,2228
,False,,,2,r,,,,,,T_target,3,,1307,thisis_cool,1 (2303).jpg,0.0-6.0-2.0-0.6,1,False,True,0,,True,True,False,True,True,False,2,2,0,,0,,,1,,,,,,,,,images/1 (2303).jpg,B,B,,7,7,0,,thisis_cool,,,initial_study,30,30,0,0,10487,0.18,1jfWQxU4S10Kri3cilyT,89,image-keyboard-response,1,1,0,"current target, not in next trial",,,,2228
,False,,,2,r,,,,,,T_target,3,,1307,thisis_cool,1 (1026).jpg,0.0-7.0-2.0-0.24,1,True,True,0,,True,True,False,True,True,False,3,3,0,1,0,,,1,,,,,,,,,images/1 (1026).jpg,B,B,,25,25,0,,thisis_cool,,,initial_study,21,21,0,27,11874,0.21,1nIB5gqnN7jL5Jfm0DEv,183,image-keyboard-response,1,1,0,"current target, not in next trial",,,,2228
,False,,,2,r,,,,,,T_target,3,,1307,thisis_cool,1 (616).jpg,0.0-6.0-2.0-0.19,1,True,True,0,,True,True,False,True,True,False,2,2,0,4,0,,,1,,,,,,,,,images/1 (616).jpg,B,B,,20,20,0,,thisis_cool,,,initial_study,19,19,0,170,10638,0.19,1rx56rQYPqXP113xO9Hz,102,image-keyboard-response,1,1,0,"current target, not in next trial",,,,2228
0,True,,,2,r,False,False,False,,f,T_foil,3,,1307,thisis_cool,1 (1549).jpg,0.0-13.0-10.0-0.23,1,True,False,0,False,False,False,False,True,False,True,9,8,9,,0,,,2,,,,0,,,,,images/1 (1549).jpg,Fnn,Fnn,,0,0,0,,thisis_cool,,,initialTest_response,24,0,24,486,19735,0.34,1uZJHVznyfiPfLLBYjfA,682,image-keyboard-response,0,1,1,"tested only, in next trial, from last trial",,,,2228
0,,,,2,r,False,,,,j,T_nontarget,3,,1307,thisis_cool,1 (613).jpg,0.0-21.0-1.0-0.35,1,True,,0,True,,True,False,,False,False,,3,0,6,0,,,,,,,0,,,,,images/1 (613).jpg,,A,,,12,0,,thisis_cool,,,finalTest,,0,0,288,24465,0.42,1wHBTSj5I3i6PToIbS2n,1053,image-keyboard-response,,,,"studied only, not in trial",,,,2228
,False,,,2,r,,,,,,T_nontarget,3,,1307,thisis_cool,1 (417).jpg,0.0-10.0-2.0-0.1,1,False,True,0,,True,True,False,False,False,False,6,6,0,,0,,,1,,,,,,,,,images/1 (417).jpg,A,A,,2,2,0,,thisis_cool,,,initial_study,0,0,0,0,15195,0.26,1wenqe8AI7PaPDH1oJrA,388,image-keyboard-response,1,0,0,"studied only, not in trial",,,,2228
0,True,,,2,r,False,False,False,,f,T_foil,3,,1307,thisis_cool,1 (21).jpg,0.0-7.0-10.0-0.18,1,True,False,0,False,False,False,False,True,False,True,3,2,3,,0,,,2,,,,0,,,,,images/1 (21).jpg,Fnn,Fnn,,0,0,0,,thisis_cool,,,initialTest_response,19,0,19,402,12490,0.22,1xr2D9WorW6VgIRrmyeI,221,image-keyboard-response,0,1,1,"tested only, in next trial, from last trial",,,,2228
0,True,,,2,r,False,False,False,,f,T_foil,3,,1307,thisis_cool,1 (36).jpg,0.0-11.0-10.0-0.3,1,True,False,0,False,False,False,False,True,False,True,7,6,7,,0,,,2,,,,0,,,,,images/1 (36).jpg,Fnn,Fnn,,0,0,0,,thisis_cool,,,initialTest_response,4,0,4,62,16924,0.29,1zBS4vVM4Nm2pn7A4hTi,510,image-keyboard-response,0,1,1,"tested only, in next trial, from last trial",,,,2228
0,False,,,2,r,False,False,,,j,T_target,3,,1307,thisis_cool,1 (419).jpg,0.0-13.0-10.0-0.18,1,True,True,0,False,True,True,False,True,True,False,9,9,False,,0,,,1,,,,0,,,,,images/1 (419).jpg,B,B,,16,16,0,,thisis_cool,,,initialTest_response,19,19,0,416,19621,0.34,251BJtb2jBR6g93zMQA5,677,image-keyboard-response,1,1,0,"current target, not in next trial",,,,2228
,True,,,2,r,,,,,,T_nontarget,3,,1307,thisis_cool,1 (2374).jpg,0.0-10.0-2.0-0.25,1,True,True,0,,True,True,False,False,False,True,6,6,7,4,0,,,1,,,,,,,,,images/1 (2374).jpg,Cn+1,Cn,,26,26,0,,thisis_cool,,,initial_study,0,0,24,169,15465,0.27,28RrO7BLaqbxSIaW3rGx,412,image-keyboard-response,1,0,1,"studied only, in next trial",,,,2228
0,,,,2,r,False,,,,j,T_target,3,,1307,thisis_cool,1 (871).jpg,0.0-17.0-1.0-0.34,1,True,,0,True,,True,False,,True,False,,4,0,2,0,,,,,,,0,,,,,images/1 (871).jpg,,B,,,21,0,,thisis_cool,,,finalTest,,30,0,95,22176,0.38,2EvwDyVacQHpJjFjhEHX,860,image-keyboard-response,,,,"current target, not in next trial",,,,2228
0,,,,2,r,False,,,,f,F,3,,1307,thisis_cool,1 (1261).jpg,0.0-23.0-1.0-0.40,1,True,,0,False,,False,False,,False,False,,0,0,8,0,,,1,,,,0,,,,,images/1 (1261).jpg,,FF,,,0,0,,thisis_cool,,,finalTest,,0,0,389,25633,0.44,2ODEYIfzhfzUs2o7bXwD,1154,image-keyboard-response,,,,final Foil,,,,2228
,True,,,2,r,,,,,,T_target,3,,1307,thisis_cool,1 (512).jpg,0.0-12.0-2.0-0.4,1,True,True,0,,True,True,False,True,True,True,8,8,9,5,0,,,1,,,,,,,,,images/1 (512).jpg,Dn+1,Dn,,5,5,0,,thisis_cool,,,initial_study,11,11,13,227,17587,0.30,2SiQ8W3FBGQ0FhILK3jG,543,image-keyboard-response,1,1,1,"current target, in next trial",,,,2228
0,,,,2,r,False,,,,f,F,3,,1307,thisis_cool,1 (1219).jpg,0.0-20.0-1.0-0.13,1,True,,0,False,,False,False,,False,False,,0,0,5,0,,,1,,,,0,,,,,images/1 (1219).jpg,,FF,,,0,0,,thisis_cool,,,finalTest,,0,0,218,23620,0.40,2WhXbr0RPJwtjpi87tYb,983,image-keyboard-response,,,,final Foil,,,,2228
0,False,,,2,r,False,False,,,j,T_target,3,,1307,thisis_cool,1 (1482).jpg,0.0-12.0-10.0-0.25,1,True,True,0,False,True,True,False,True,True,False,8,8,False,,0,,,1,,,,0,,,,,images/1 (1482).jpg,B,B,,29,29,0,,thisis_cool,,,initialTest_response,26,26,0,262,18586,0.32,2WxuC9I9TKqOrt3Wk8Lt,608,image-keyboard-response,1,1,0,"current target, not in next trial",,,,2228
0,,,,2,r,False,,,,j,T_nontarget,3,,1307,thisis_cool,1 (958).jpg,0.0-16.0-1.0-0.50,1,True,,0,True,,True,False,,False,False,,6,0,1,0,,,,,,,0,,,,,images/1 (958).jpg,,A,,,22,0,,thisis_cool,,,finalTest,,0,0,51,21661,0.37,2XmIoVdAhYpKtyhr3K29,816,image-keyboard-response,,,,"studied only, not in trial",,,,2228
,,,,2,r,,,,,,,3,,1307,thisis_cool,,0.0-7.0-3.0-0.0,1,,,0,,,,,,,,,,,,,,,,,,,,,,,,Summing up the digits as they appear,,,,,,,,thisis_cool,,,prompt,,,,,11939,0.21,2ZjbhiuwM2WtDGEv0JTY,189,html-keyboard-response,,,,,,,,2228
,,,,2,r,,,,,,,3,,1307,thisis_cool,,0.0-6.0-9.0-0.0,1,,,0,,,,,,,,,,,,,,,,,,,,,,,,"<div style=""font-size:60px;"">+</div>",,,,,,,,thisis_cool,,,fixation,,,,,10913,0.19,2dt7OykmMxaM57MZ6kft,126,html-keyboard-response,,,,,,,,2228
0,,,,2,r,False,,,,j,T_nontarget,3,,1307,thisis_cool,1 (1477).jpg,0.0-17.0-1.0-0.5,1,True,,0,True,,True,False,,False,False,,5,0,2,0,,,,,,,0,,,,,images/1 (1477).jpg,,A,,,26,0,,thisis_cool,,,finalTest,,0,0,66,21833,0.37,2h6YS43JJhhk2vkihyPn,831,image-keyboard-response,,,,"studied only, not in trial",,,,2228
,True,,,2,r,,,,,,T_nontarget,3,,1307,thisis_cool,1 (1907).jpg,0.0-6.0-2.0-0.20,1,False,True,0,,True,True,False,False,False,True,2,2,3,,0,,,1,,,,,,,,,images/1 (1907).jpg,Cn+1,Cn,,21,21,0,,thisis_cool,,,initial_study,0,0,25,0,10651,0.19,2jysRp2PkdZCrSEuIE10,103,image-keyboard-response,1,0,1,"studied only, in next trial",,,,2228
0,False,,,2,r,False,False,,,j,T_target,3,,1307,thisis_cool,1 (1583).jpg,0.0-13.0-10.0-0.9,1,True,True,0,False,True,True,False,True,True,False,9,9,False,,0,,,1,,,,0,,,,,images/1 (1583).jpg,B,B,,7,7,0,,thisis_cool,,,initialTest_response,10,10,0,114,19415,0.33,2nBj4qdzeOrv9btPH5mh,668,image-keyboard-response,1,1,0,"current target, not in next trial",,,,2228
,False,,,2,r,,,,,,T_nontarget,3,,1307,thisis_cool,1 (2245).jpg,0.0-14.0-2.0-0.19,1,False,True,0,,True,True,False,False,False,False,10,10,0,,0,,,1,,,,,,,,,images/1 (2245).jpg,A,A,,20,20,0,,thisis_cool,,,initial_study,0,0,0,0,20134,0.34,2od6j8i2cOAEdwJbUpAB,710,image-keyboard-response,1,0,0,"studied only, not in trial",,,,2228
0,False,,,2,r,False,False,,,j,T_target,3,,1307,thisis_cool,1 (1772).jpg,0.0-7.0-10.0-0.21,1,False,True,0,False,True,True,False,True,True,False,3,3,False,,0,,,1,,,,0,,,,,images/1 (1772).jpg,B,B,,29,29,0,,thisis_cool,,,initialTest_response,22,22,0,0,12554,0.22,2p6U0S478W5u3nYFdnYc,224,image-keyboard-response,1,1,0,"current target, not in next trial",,,,2228
0,,,,2,r,False,,,,f,F,3,,1307,thisis_cool,1 (950).jpg,0.0-25.0-1.0-0.15,1,True,,0,False,,False,False,,False,False,,0,0,10,7,,,1,,,,0,,,,,images/1 (950).jpg,,FF,,,0,0,,thisis_cool,,,finalTest,,0,0,460,26462,0.45,2prg6ZjTE6rdsqufR8qd,1225,image-keyboard-response,,,,final Foil,,,,2228
,False,,,2,r,,,,,,T_target,3,,1307,thisis_cool,1 (1137).jpg,0.0-11.0-2.0-0.18,1,False,True,0,,True,True,False,True,True,False,7,7,0,,0,,,1,,,,,,,,,images/1 (1137).jpg,B,B,,19,19,0,,thisis_cool,,,initial_study,17,17,0,0,16561,0.29,2rjpCEP8YGYQncEucB9E,481,image-keyboard-response,1,1,0,"current target, not in next trial",,,,2228
,False,,,2,r,,,,,,T_target,3,,1307,thisis_cool,1 (1995).jpg,0.0-10.0-2.0-0.19,1,True,True,0,,True,True,False,True,True,False,6,6,0,8,0,,,1,,,,,,,,,images/1 (1995).jpg,B,B,,20,20,0,,thisis_cool,,,initial_study,4,4,0,383,15396,0.27,2tVIk6Q0m29BRUHBrMXZ,406,image-keyboard-response,1,1,0,"current target, not in next trial",,,,2228
0,,,,2,r,False,,,,f,F,3,,1307,thisis_cool,1 (2149).jpg,0.0-22.0-1.0-0.5,1,True,,0,False,,False,False,,False,False,,0,0,7,1,,,1,,,,0,,,,,images/1 (2149).jpg,,FF,,,0,0,,thisis_cool,,,finalTest,,0,0,306,24680,0.42,2x3ZPlP21vjwYWBLDUkt,1071,image-keyboard-response,,,,final Foil,,,,2228
0,,,,2,r,False,,,,f,F,3,,1307,thisis_cool,1 (414).jpg,0.0-20.0-1.0-0.47,1,True,,0,False,,False,False,,False,False,,0,0,5,8,,,1,,,,0,,,,,images/1 (414).jpg,,FF,,,0,0,,thisis_cool,,,finalTest,,0,0,252,24030,0.41,30PzNtdNe5oLJoqzaQi1,1017,image-keyboard-response,,,,final Foil,,,,2228
0,,,,2,r,False,,,,j,T_nontarget,3,,1307,thisis_cool,1 (224).jpg,0.0-17.0-1.0-0.6,1,True,,0,True,,True,False,,False,False,,5,0,2,0,,,,,,,0,,,,,images/1 (224).jpg,,A,,,25,0,,thisis_cool,,,finalTest,,0,0,67,21844,0.37,30YnFkfxhBNkqIr5CVKU,832,image-keyboard-response,,,,"studied only, not in trial",,,,2228
,,,,2,r,,,,,,,3,,1307,thisis_cool,,0.0-14.0-1.0-0.0,1,,,0,,,,,,,,,,,,,,,,,,,,,,,,"<div style=""font-size:60px;"">+</div>",,,,,,,,thisis_cool,,,fixation,,,,,19901,0.34,30lF0pWVpAAmUOg36j9Z,690,html-keyboard-response,,,,,,,,2228
0,,,,2,r,False,,,,f,F,3,,1307,thisis_cool,1 (1224).jpg,0.0-19.0-1.0-0.6,1,True,,0,False,,False,False,,False,False,,0,0,4,6,,,1,,,,0,,,,,images/1 (1224).jpg,,FF,,,0,0,,thisis_cool,,,finalTest,,0,0,163,22973,0.39,3AnD0w7bQozHJCcoIVjS,928,image-keyboard-response,,,,final Foil,,,,2228
,,,,2,r,,,,,,,3,,1307,thisis_cool,,0.0-14.0-5.0-0.7,1,,,0,,,,,,,,10,,,,,,,,,8,,,,,,,5,,,5,,,,,thisis_cool,,47,digitPresentation,,,,,20358,0.35,3BsF2idOW1I6ZFzWVIlw,730,html-keyboard-response,,,,,,,,2228
0,True,,,2,r,False,False,,,j,T_target,3,,1307,thisis_cool,1 (101).jpg,0.0-10.0-10.0-0.9,1,True,True,0,False,True,True,False,True,True,True,6,6,7,,0,,,1,,,,0,,,,,images/1 (101).jpg,Dn+1,Dn,,21,21,0,,thisis_cool,,,initialTest_response,10,10,23,6,15873,0.27,3CdBHBL1ijFt2IVu7GJq,440,image-keyboard-response,1,1,1,"current target, in next trial",,,,2228
0,False,,,2,r,False,False,,,j,T_target,3,,1307,thisis_cool,1 (1091).jpg,0.0-9.0-10.0-0.22,1,True,True,0,False,True,True,False,True,True,False,5,5,False,,0,,,1,,,,0,,,,,images/1 (1091).jpg,B,B,,24,24,0,,thisis_cool,,,initialTest_response,23,23,0,329,14984,0.26,3CmALsLXrDLGznokbgVd,377,image-keyboard-response,1,1,0,"current target, not in next trial",,,,2228
0,True,,,2,r,False,False,False,,f,T_foil,3,,1307,thisis_cool,1 (957).jpg,0.0-11.0-10.0-0.0,1,False,False,0,False,False,True,False,True,True,True,7,6,7,,0,,,2,,,,0,,,,,images/1 (957).jpg,Dn,Dn,,0,13,0,,thisis_cool,,,initialTest_response,1,13,1,0,16858,0.29,3DcvHnjEjUArtCKcT96N,507,image-keyboard-response,1,1,1,"current target, in next trial, from last trial",,,,2228
,True,,,2,r,,,,,,T_target,3,,1307,thisis_cool,1 (736).jpg,0.0-8.0-2.0-0.17,1,True,True,0,,True,True,False,True,True,True,4,4,5,5,0,,,1,,,,,,,,,images/1 (736).jpg,Dn+1,Dn,,18,18,0,,thisis_cool,,,initial_study,8,8,17,228,12985,0.23,3FQ4jcWscNZEy4slx6Ap,252,image-keyboard-response,1,1,1,"current target, in next trial",,,,2228
0,,,,2,r,False,,,,j,T_nontarget,3,,1307,thisis_cool,1 (1933).jpg,0.0-19.0-1.0-0.33,1,True,,0,True,,True,False,,False,False,,4,0,4,0,,,,,,,0,,,,,images/1 (1933).jpg,,A,,,23,0,,thisis_cool,,,finalTest,,0,0,190,23289,0.40,3I2gCfDz1ttwNjnu6Ent,955,image-keyboard-response,,,,"studied only, not in trial",,,,2228
0,True,,,2,r,False,False,False,,f,T_foil,3,,1307,thisis_cool,1 (877).jpg,0.0-13.0-10.0-0.13,1,False,False,0,False,False,True,False,True,True,True,9,8,9,,0,,,2,,,,0,,,,,images/1 (877).jpg,Dn,Dn,,0,30,0,,thisis_cool,,,initialTest_response,14,30,14,0,19502,0.33,3I4lzazNE8rOGZK6guNJ,672,image-keyboard-response,1,1,1,"current target, in next trial, from last trial",,,,2228
,,,,2,r,,,,,,,3,,1307,thisis_cool,,0.0-11.0-5.0-0.2,1,,,0,,,,,,,,7,,,,,,,,,3,,,,,,,9,,,9,,,,,thisis_cool,,54,digitPresentation,,,,,16748,0.29,3IENKwzB3GHj1vivo3nO,497,html-keyboard-response,,,,,,,,2228
0,,,,2,r,False,,,,f,F,3,,1307,thisis_cool,1 (1028).jpg,0.0-21.0-1.0-0.5,1,True,,0,False,,False,False,,False,False,,0,0,6,4,,,1,,,,0,,,,,images/1 (1028).jpg,,FF,,,0,0,,thisis_cool,,,finalTest,,0,0,258,24099,0.41,3IZ9F16A5xiAddGohPHy,1023,image-keyboard-response,,,,final Foil,,,,2228
,False,,,2,r,,,,,,T_target,3,,1728,thisis_cool,1 (2268).jpg,0.0-5.0-2.0-0.3,0,False,True,0,,True,True,False,True,True,False,1,1,0,,0,,,1,,,,,,,,,images/1 (2268).jpg,B,B,,4,4,0,,thisis_cool,,,initial_study,21,21,0,0,8140,0.14,3IrQKpG9etpTcbad1TkH,10,image-keyboard-response,1,1,0,"current target, not in next trial",,,,3072
,False,,,2,r,,,,,,T_nontarget,3,,1307,thisis_cool,1 (1889).jpg,0.0-10.0-2.0-0.2,1,True,True,0,,True,True,False,False,False,False,6,6,0,2,0,,,1,,,,,,,,,images/1 (1889).jpg,A,A,,3,3,0,,thisis_cool,,,initial_study,0,0,0,92,15206,0.26,3MNCwxliniKr0ApXn8Ar,389,image-keyboard-response,1,0,0,"studied only, not in trial",,,,2228
0,,,,2,r,False,,,,f,F,3,,1307,thisis_cool,1 (1161).jpg,0.0-21.0-1.0-0.3,1,True,,0,False,,False,False,,False,False,,0,0,6,7,,,1,,,,0,,,,,images/1 (1161).jpg,,FF,,,0,0,,thisis_cool,,,finalTest,,0,0,256,24076,0.41,3Vpb3IQunwXnuQeogcDu,1021,image-keyboard-response,,,,final Foil,,,,2228
,,,,2,r,,,,,,,3,,1307,thisis_cool,,0.0-13.0-0.0-0.0,1,,,0,,,,,,,,,,,,,,,,,,,,,,,,"
    <p style='text-align: justify;color: black;background: white;font: caption-;''>
        Press the 'enter' key to see the next list of pictures. </p>
    ",,,,,,,,thisis_cool,,,,,,,,18694,0.32,3Y9zy3bKQDhuZJR3KME0,613,html-keyboard-response,,,,,,,,2228
0,True,,,2,r,False,False,,,j,T_target,3,,1307,thisis_cool,1 (1083).jpg,0.0-7.0-10.0-0.11,1,False,True,0,False,True,True,False,True,True,True,3,3,4,,0,,,1,,,,0,,,,,images/1 (1083).jpg,Dn+1,Dn,,18,18,0,,thisis_cool,,,initialTest_response,12,12,19,0,12340,0.21,3aLbHETzp853A0d7h387,214,image-keyboard-response,1,1,1,"current target, in next trial",,,,2228
0,True,,,2,r,False,False,False,,f,T_foil,3,,1307,thisis_cool,1 (1259).jpg,0.0-6.0-10.0-0.27,1,True,False,0,False,False,False,False,True,False,True,2,1,2,,0,,,2,,,,0,,,,,images/1 (1259).jpg,Fnn,Fnn,,0,0,0,,thisis_cool,,,initialTest_response,28,0,28,305,11511,0.20,3dF6udWABpb4A4cDLUFn,154,image-keyboard-response,0,1,1,"tested only, in next trial, from last trial",,,,2228
,True,,,2,r,,,,,,T_nontarget,3,,1307,thisis_cool,1 (1824).jpg,0.0-10.0-2.0-0.24,1,False,True,0,,True,True,False,False,False,True,6,6,7,,0,,,1,,,,,,,,,images/1 (1824).jpg,Cn+1,Cn,,25,25,0,,thisis_cool,,,initial_study,0,0,18,0,15454,0.27,3dqfVrTVi4dvMa5CJF3D,411,image-keyboard-response,1,0,1,"studied only, in next trial",,,,2228
0,,,,2,r,False,,,,f,F,3,,1307,thisis_cool,1 (1570).jpg,0.0-24.0-1.0-0.28,1,True,,0,False,,False,False,,False,False,,0,0,9,2,,,1,,,,0,,,,,images/1 (1570).jpg,,FF,,,0,0,,thisis_cool,,,finalTest,,0,0,425,26058,0.44,3fctjB7YQgcyBKRBGaKb,1190,image-keyboard-response,,,,final Foil,,,,2228
,False,,,2,r,,,,,,T_nontarget,3,,1307,thisis_cool,1 (658).jpg,0.0-8.0-2.0-0.11,1,False,True,0,,True,True,False,False,False,False,4,4,0,,0,,,1,,,,,,,,,images/1 (658).jpg,A,A,,12,12,0,,thisis_cool,,,initial_study,0,0,0,0,12916,0.22,3pUYG8qtRvRAMnPBa5nc,246,image-keyboard-response,1,0,0,"studied only, not in trial",,,,2228
0,,,,2,r,False,,,,f,F,3,,1307,thisis_cool,1 (1427).jpg,0.0-21.0-1.0-0.30,1,True,,0,False,,False,False,,False,False,,0,0,6,3,,,1,,,,0,,,,,images/1 (1427).jpg,,FF,,,0,0,,thisis_cool,,,finalTest,,0,0,283,24406,0.42,41mmpCBydjU4YUQdXZYI,1048,image-keyboard-response,,,,final Foil,,,,2228
0,False,,,2,r,False,False,,,j,T_target,3,,1307,thisis_cool,1 (342).jpg,0.0-12.0-10.0-0.15,1,True,True,0,False,True,True,False,True,True,False,8,8,False,,0,,,1,,,,0,,,,,images/1 (342).jpg,B,B,,19,19,0,,thisis_cool,,,initialTest_response,16,16,0,200,18369,0.32,47YVpG0MntRrnjOGSMbT,598,image-keyboard-response,1,1,0,"current target, not in next trial",,,,2228
0,,,,2,r,False,,,,j,T_nontarget,3,,1307,thisis_cool,1 (2285).jpg,0.0-18.0-1.0-0.47,1,True,,0,True,,True,False,,False,False,,4,0,3,0,,,,,,,0,,,,,images/1 (2285).jpg,,A,,,6,0,,thisis_cool,,,finalTest,,0,0,156,22893,0.39,4C2YxuJNVk6q6NPWWAJU,921,image-keyboard-response,,,,"studied only, not in trial",,,,2228
0,,,,2,r,False,,,,j,T_target,3,,1307,thisis_cool,1 (1551).jpg,0.0-17.0-1.0-0.10,1,True,,0,True,,True,False,,True,False,,8,0,2,0,,,,,,,0,,,,,images/1 (1551).jpg,,B,,,15,0,,thisis_cool,,,finalTest,,14,0,71,21889,0.37,4CL6dFDl7DOKCqcPzEdL,836,image-keyboard-response,,,,"current target, not in next trial",,,,2228
0,,,,2,r,False,,,,j,T_nontarget,3,,1307,thisis_cool,1 (162).jpg,0.0-19.0-1.0-0.3,1,True,,0,True,,True,False,,False,False,,5,0,4,0,,,,,,,0,,,,,images/1 (162).jpg,,A,,,16,0,,thisis_cool,,,finalTest,,0,0,160,22939,0.39,4CNJJ2G7GELboK43Ietv,925,image-keyboard-response,,,,"studied only, not in trial",,,,2228
0,False,,,2,r,False,False,,,f,T_foil,3,,1307,thisis_cool,1 (888).jpg,0.0-5.0-10.0-0.24,1,True,True,0,False,False,False,False,True,True,False,1,1,False,6,0,,,1,,,,0,,,,,images/1 (888).jpg,Fn+1,Fn,,0,0,0,,thisis_cool,,,initialTest_response,25,25,0,298,10264,0.18,4FVmigdCn1tSKEmtuVm9,75,image-keyboard-response,0,1,0,"tested only, not in next trial",,,,2228
,,,,2,r,,,,,,,3,,1307,thisis_cool,,0.0-8.0-5.0-0.4,1,,,0,,,,,,,,4,,,,,,,,,5,,,,,,,9,,,9,,,,,thisis_cool,,50,digitPresentation,,,,,13201,0.23,4GXsTHh7Zp1g0EcsTpAL,271,html-keyboard-response,,,,,,,,2228
,,,,2,r,,,,,,,3,,1307,thisis_cool,,0.0-12.0-5.0-0.7,1,,,0,,,,,,,,8,,,,,,,,,8,,,,,,,9,,,9,,,,,thisis_cool,,53,digitPresentation,,,,,17979,0.31,4Go01GUfNDVo4XFfIEi6,578,html-keyboard-response,,,,,,,,2228
0,,,,2,r,False,,,,f,F,3,,1307,thisis_cool,1 (1117).jpg,0.0-20.0-1.0-0.39,1,True,,0,False,,False,False,,False,False,,0,0,5,0,,,1,,,,0,,,,,images/1 (1117).jpg,,FF,,,0,0,,thisis_cool,,,finalTest,,0,0,244,23926,0.41,4H4cqNpXMrIhAq47uSEm,1009,image-keyboard-response,,,,final Foil,,,,2228
0,,,,2,r,False,,,,j,T_target,3,,1307,thisis_cool,1 (1995).jpg,0.0-23.0-1.0-0.34,1,True,,0,True,,True,False,,True,False,,6,0,8,0,,,,,,,0,,,,,images/1 (1995).jpg,,B,,,20,0,,thisis_cool,,,finalTest,,4,0,383,25570,0.44,4HTCz6IRFnAOtJA9sEem,1148,image-keyboard-response,,,,"current target, not in next trial",,,,2228
0,False,,,2,r,False,False,,,j,T_target,3,,1307,thisis_cool,1 (1042).jpg,0.0-5.0-10.0-0.10,1,True,True,0,False,True,True,False,True,True,False,1,1,False,,0,,,1,,,,0,,,,,images/1 (1042).jpg,B,B,,23,23,0,,thisis_cool,,,initialTest_response,11,11,0,265,9955,0.17,4MsrPRyKPYRt2y35shuN,61,image-keyboard-response,1,1,0,"current target, not in next trial",,,,2228
,False,,,2,r,,,,,,T_target,3,,1307,thisis_cool,1 (814).jpg,0.0-11.0-2.0-0.9,1,False,True,0,,True,True,False,True,True,False,7,7,0,,0,,,1,,,,,,,,,images/1 (814).jpg,B,B,,10,10,0,,thisis_cool,,,initial_study,3,3,0,0,16455,0.28,4QMHjNcDyxiFiLUIB4qN,472,image-keyboard-response,1,1,0,"current target, not in next trial",,,,2228
0,,,,2,r,False,,,,f,F,3,,1307,thisis_cool,1 (2131).jpg,0.0-22.0-1.0-0.42,1,True,,0,False,,False,False,,False,False,,0,0,7,4,,,1,,,,0,,,,,images/1 (2131).jpg,,FF,,,0,0,,thisis_cool,,,finalTest,,0,0,343,25105,0.43,4SSg97DBybuOmxtNgqLJ,1108,image-keyboard-response,,,,final Foil,,,,2228
0,,,,2,r,False,False,False,,j,T_foil,3,,1307,thisis_cool,1 (568).jpg,0.0-22.0-1.0-0.43,1,True,,0,True,,False,False,,True,True,,4,5,7,4,,,,,,,0,,,,,images/1 (568).jpg,,Fnn,,,0,0,,thisis_cool,,,finalTest,,5,6,344,25120,0.43,4YmxQulXZyHP3Xr0mWMv,1109,image-keyboard-response,,,,"tested only, in next trial",,,,2228
,,,,2,r,,,,,,,3,,1306,thisis_cool,,0.0-1.0,0,,,0,,,,,,,,,,,,,,,,,,,,{'Q0': 'thisis_cool'},,2923,,,,,,,,,,thisis_cool,,,enterid,,,,,3352,0.06,4aq5meCDMXgVagijR2Pi,1,survey-text,,,,,,,,2228
0,False,,,2,r,False,False,,,f,T_foil,3,,1307,thisis_cool,1 (978).jpg,0.0-5.0-10.0-0.19,1,True,True,0,False,False,False,False,True,True,False,1,1,False,4,0,,,1,,,,0,,,,,images/1 (978).jpg,Fn+1,Fn,,0,0,0,,thisis_cool,,,initialTest_response,20,20,0,189,10159,0.18,4c1bCUfnH2z6vD2aVfVS,70,image-keyboard-response,0,1,0,"tested only, not in next trial",,,,2228
0,,,,2,r,False,,,,j,T_nontarget,3,,1307,thisis_cool,1 (1118).jpg,0.0-20.0-1.0-0.12,1,True,,0,True,,True,False,,False,False,,8,0,5,0,,,,,,,0,,,,,images/1 (1118).jpg,,A,,,6,0,,thisis_cool,,,finalTest,,0,0,217,23608,0.40,4cCdk1VJccA8m57TcdBN,982,image-keyboard-response,,,,"studied only, not in trial",,,,2228
0,,,,2,r,False,,,,f,F,3,,1307,thisis_cool,1 (2098).jpg,0.0-22.0-1.0-0.39,1,True,,0,False,,False,False,,False,False,,0,0,7,4,,,1,,,,0,,,,,images/1 (2098).jpg,,FF,,,0,0,,thisis_cool,,,finalTest,,0,0,340,25070,0.43,4k1Cb7vg4JO0FDSSgeGN,1105,image-keyboard-response,,,,final Foil,,,,2228
,,,,2,r,,,,,,,3,,1307,thisis_cool,,0.0-12.0-5.0-0.1,1,,,0,,,,,,,,8,,,,,,,,,2,,,,,,,8,,,8,,,,,thisis_cool,,53,digitPresentation,,,,,17915,0.31,4muVHeGGXSsmHuOF8pZU,572,html-keyboard-response,,,,,,,,2228
0,,,,2,r,False,,,,f,F,3,,1307,thisis_cool,1 (1722).jpg,0.0-24.0-1.0-0.33,1,True,,0,False,,False,False,,False,False,,0,0,9,10,,,1,,,,0,,,,,images/1 (1722).jpg,,FF,,,0,0,,thisis_cool,,,finalTest,,0,0,430,26119,0.44,4oqs0hAkQtVgMPzG2gTJ,1195,image-keyboard-response,,,,final Foil,,,,2228
0,,,,2,r,False,,,,j,T_target,3,,1307,thisis_cool,1 (1269).jpg,0.0-21.0-1.0-0.1,1,True,,0,True,,True,False,,True,False,,5,0,6,0,,,,,,,0,,,,,images/1 (1269).jpg,,B,,,30,0,,thisis_cool,,,finalTest,,15,0,254,24054,0.41,4pJHhxpunTXzsM2kS0AO,1019,image-keyboard-response,,,,"current target, not in next trial",,,,2228
0,True,,,2,r,False,False,,,j,T_target,3,,1307,thisis_cool,1 (512).jpg,0.0-12.0-10.0-0.10,1,True,True,0,False,True,True,False,True,True,True,8,8,9,,0,,,1,,,,0,,,,,images/1 (512).jpg,Dn+1,Dn,,5,5,0,,thisis_cool,,,initialTest_response,11,11,13,227,18261,0.31,4qLAohN5QWDebLWafr6J,593,image-keyboard-response,1,1,1,"current target, in next trial",,,,2228
0,,,,2,r,False,,,,f,F,3,,1307,thisis_cool,1 (995).jpg,0.0-18.0-1.0-0.29,1,True,,0,False,,False,False,,False,False,,0,0,3,0,,,1,,,,0,,,,,images/1 (995).jpg,,FF,,,0,0,,thisis_cool,,,finalTest,,0,0,138,22682,0.39,4tVqovwsPMY8HmsHrlnC,903,image-keyboard-response,,,,final Foil,,,,2228
,False,,,2,r,,,,,,T_target,3,,1307,thisis_cool,1 (1293).jpg,0.0-10.0-2.0-0.27,1,True,True,0,,True,True,False,True,True,False,6,6,0,2,0,,,1,,,,,,,,,images/1 (1293).jpg,B,B,,28,28,0,,thisis_cool,,,initial_study,9,9,0,99,15488,0.27,4uGleuD5cx9SvKYedxze,414,image-keyboard-response,1,1,0,"current target, not in next trial",,,,2228
0,,,,2,r,False,,,,f,F,3,,1307,thisis_cool,1 (107).jpg,0.0-20.0-1.0-0.34,1,True,,0,False,,False,False,,False,False,,0,0,5,8,,,1,,,,0,,,,,images/1 (107).jpg,,FF,,,0,0,,thisis_cool,,,finalTest,,0,0,239,23869,0.41,4vTSB7yrv1LxoPl9ak3T,1004,image-keyboard-response,,,,final Foil,,,,2228
0,,,,2,r,False,,,,j,T_nontarget,3,,1307,thisis_cool,1 (206).jpg,0.0-22.0-1.0-0.8,1,True,,0,True,,True,False,,False,False,,6,0,7,0,,,,,,,0,,,,,images/1 (206).jpg,,A,,,11,0,,thisis_cool,,,finalTest,,0,0,309,24713,0.42,4wTnbMH4RRCyS8zeR6J4,1074,image-keyboard-response,,,,"studied only, not in trial",,,,2228
0,False,,,2,r,False,False,,,j,T_target,3,,1307,thisis_cool,1 (604).jpg,0.0-6.0-10.0-0.8,1,True,True,0,False,True,True,False,True,True,False,2,2,False,,0,,,1,,,,0,,,,,images/1 (604).jpg,B,B,,16,16,0,,thisis_cool,,,initialTest_response,9,9,0,102,11104,0.19,4wq5j55BZ0b3GPKXtLra,135,image-keyboard-response,1,1,0,"current target, not in next trial",,,,2228
,False,,,2,r,,,,,,T_target,3,,1307,thisis_cool,1 (1849).jpg,0.0-13.0-2.0-0.18,1,True,True,0,,True,True,False,True,True,False,9,9,0,4,0,,,1,,,,,,,,,images/1 (1849).jpg,B,B,,19,19,0,,thisis_cool,,,initial_study,15,15,0,178,18927,0.32,4x3oIN0ecXBxUubJI4xk,633,image-keyboard-response,1,1,0,"current target, not in next trial",,,,2228
0,,,,2,r,False,,,,j,T_target,3,,1307,thisis_cool,1 (1237).jpg,0.0-20.0-1.0-0.31,1,True,,0,True,,True,False,,True,False,,10,0,5,0,,,,,,,0,,,,,images/1 (1237).jpg,,B,,,7,0,,thisis_cool,,,finalTest,,11,0,236,23834,0.41,52e0reqGkTHP71ra3Grb,1001,image-keyboard-response,,,,"current target, not in next trial",,,,2228
0,,,,2,r,False,,,,f,F,3,,1307,thisis_cool,1 (2132).jpg,0.0-23.0-1.0-0.24,1,True,,0,False,,False,False,,False,False,,0,0,8,0,,,1,,,,0,,,,,images/1 (2132).jpg,,FF,,,0,0,,thisis_cool,,,finalTest,,0,0,373,25461,0.43,54QlrGQCHwP4V2PwnQKh,1138,image-keyboard-response,,,,final Foil,,,,2228
,False,,,2,r,,,,,,T_nontarget,3,,1307,thisis_cool,1 (982).jpg,0.0-8.0-2.0-0.12,1,True,True,0,,True,True,False,False,False,False,4,4,0,10,0,,,1,,,,,,,,,images/1 (982).jpg,A,A,,13,13,0,,thisis_cool,,,initial_study,0,0,0,474,12927,0.22,58qlwqCtkiG93qlybe18,247,image-keyboard-response,1,0,0,"studied only, not in trial",,,,2228
,,,,2,r,,,,,,,3,,1307,thisis_cool,,0.0-8.0-5.0-0.6,1,,,0,,,,,,,,4,,,,,,,,,7,,,,,,,4,,,4,,,,,thisis_cool,,50,digitPresentation,,,,,13223,0.23,5IECiQGOHaUKTX2Xzbj5,273,html-keyboard-response,,,,,,,,2228
,,,,2,r,,,,,,,3,,1307,thisis_cool,,0.0-12.0-5.0-0.0,1,,,0,,,,,,,,8,,,,,,,,,1,,,,,,,5,,,5,,,,,thisis_cool,,53,digitPresentation,,,,,17904,0.31,5It1ahTRNBzQ1GMUjKWs,571,html-keyboard-response,,,,,,,,2228
,,,,2,r,,,,,,,3,,1307,thisis_cool,,0.0-6.0-5.0-0.1,1,,,0,,,,,,,,2,,,,,,,,,2,,,,,,,5,,,5,,,,,thisis_cool,,52,digitPresentation,,,,,10804,0.19,5PhBKfJSEUhNE4ttByjt,116,html-keyboard-response,,,,,,,,2228
,False,,,2,r,,,,,,T_target,3,,1307,thisis_cool,1 (885).jpg,0.0-6.0-2.0-0.28,1,True,True,0,,True,True,False,True,True,False,2,2,0,4,0,,,1,,,,,,,,,images/1 (885).jpg,B,B,,29,29,0,,thisis_cool,,,initial_study,3,3,0,202,10747,0.19,5QScaZqDWZ22zJd5xNoU,111,image-keyboard-response,1,1,0,"current target, not in next trial",,,,2228
0,,,,2,r,False,,,,f,F,3,,1307,thisis_cool,1 (584).jpg,0.0-22.0-1.0-0.47,1,True,,0,False,,False,False,,False,False,,0,0,7,5,,,1,,,,0,,,,,images/1 (584).jpg,,FF,,,0,0,,thisis_cool,,,finalTest,,0,0,348,25166,0.43,5S7LRGfy2W5Er7g23dpF,1113,image-keyboard-response,,,,final Foil,,,,2228
0,,,,2,r,False,,,,j,T_target,3,,1307,thisis_cool,1 (1958).jpg,0.0-18.0-1.0-0.28,1,True,,0,True,,True,False,,True,False,,5,0,3,0,,,,,,,0,,,,,images/1 (1958).jpg,,B,,,11,0,,thisis_cool,,,finalTest,,7,0,137,22671,0.39,5XnORG6jjb6CBGuVGsYK,902,image-keyboard-response,,,,"current target, not in next trial",,,,2228
0,,,,2,r,False,,,,f,F,3,,1307,thisis_cool,1 (2177).jpg,0.0-19.0-1.0-0.23,1,True,,0,False,,False,False,,False,False,,0,0,4,7,,,1,,,,0,,,,,images/1 (2177).jpg,,FF,,,0,0,,thisis_cool,,,finalTest,,0,0,180,23173,0.40,5dJ24zlcKsDPChvMrg4x,945,image-keyboard-response,,,,final Foil,,,,2228
,False,,,2,r,,,,,,T_target,3,,1307,thisis_cool,1 (1700).jpg,0.0-11.0-2.0-0.22,1,True,True,0,,True,True,False,True,True,False,7,7,0,9,0,,,1,,,,,,,,,images/1 (1700).jpg,B,B,,23,23,0,,thisis_cool,,,initial_study,14,14,0,421,16606,0.29,5eZEgCAVQdaGHcK1jp5W,485,image-keyboard-response,1,1,0,"current target, not in next trial",,,,2228
0,,,,2,r,False,,,,f,F,3,,1307,thisis_cool,1 (1788).jpg,0.0-19.0-1.0-0.30,1,True,,0,False,,False,False,,False,False,,0,0,4,2,,,1,,,,0,,,,,images/1 (1788).jpg,,FF,,,0,0,,thisis_cool,,,finalTest,,0,0,187,23254,0.40,5iEX8OriUqjIBirDSLWt,952,image-keyboard-response,,,,final Foil,,,,2228
,False,,,2,r,,,,,,T_target,3,,1307,thisis_cool,1 (2101).jpg,0.0-8.0-2.0-0.19,1,False,True,0,,True,True,False,True,True,False,4,4,0,,0,,,1,,,,,,,,,images/1 (2101).jpg,B,B,,20,20,0,,thisis_cool,,,initial_study,7,7,0,0,13011,0.23,5iJw4gozgMElZTlOIfWK,254,image-keyboard-response,1,1,0,"current target, not in next trial",,,,2228
0,True,,,2,r,False,False,False,,f,T_foil,3,,1307,thisis_cool,1 (1005).jpg,0.0-8.0-10.0-0.25,1,True,False,0,False,False,False,False,True,False,True,4,3,4,,0,,,2,,,,0,,,,,images/1 (1005).jpg,Fnn,Fnn,,0,0,0,,thisis_cool,,,initialTest_response,26,0,26,111,13862,0.24,5qYjq2Z8lbiiLqZK18xQ,304,image-keyboard-response,0,1,1,"tested only, in next trial, from last trial",,,,2228
,False,,,2,r,,,,,,T_target,3,,1307,thisis_cool,1 (278).jpg,0.0-14.0-2.0-0.24,1,True,True,0,,True,True,False,True,True,False,10,10,0,10,0,,,1,,,,,,,,,images/1 (278).jpg,B,B,,25,25,0,,thisis_cool,,,initial_study,3,3,0,462,20190,0.35,5wgad6pIBxi8OMBOVvEk,715,image-keyboard-response,1,1,0,"current target, not in next trial",,,,2228
,False,,,2,r,,,,,,T_target,3,,1307,thisis_cool,1 (121).jpg,0.0-10.0-2.0-0.6,1,True,True,0,,True,True,False,True,True,False,6,6,0,6,0,,,1,,,,,,,,,images/1 (121).jpg,B,B,,7,7,0,,thisis_cool,,,initial_study,26,26,0,277,15251,0.26,60xD015wEtPnjHpO92HK,393,image-keyboard-response,1,1,0,"current target, not in next trial",,,,2228
,False,,,2,r,,,,,,T_nontarget,3,,1307,thisis_cool,1 (1555).jpg,0.0-13.0-2.0-0.2,1,False,True,0,,True,True,False,False,False,False,9,9,0,,0,,,1,,,,,,,,,images/1 (1555).jpg,A,A,,3,3,0,,thisis_cool,,,initial_study,0,0,0,0,18748,0.32,63o6w9inJb50dLvDvx7C,617,image-keyboard-response,1,0,0,"studied only, not in trial",,,,2228
0,,,,2,r,False,,,,f,F,3,,1307,thisis_cool,1 (1650).jpg,0.0-17.0-1.0-0.26,1,True,,0,False,,False,False,,False,False,,0,0,2,0,,,1,,,,0,,,,,images/1 (1650).jpg,,FF,,,0,0,,thisis_cool,,,finalTest,,0,0,87,22081,0.38,64K8BYEmnktxb6e9OHPE,852,image-keyboard-response,,,,final Foil,,,,2228
,False,,,2,r,,,,,,T_nontarget,3,,1728,thisis_cool,1 (1502).jpg,0.0-5.0-2.0-0.7,0,True,True,0,,True,True,False,False,False,False,1,1,0,3,0,,,1,,,,,,,,,images/1 (1502).jpg,A,A,,8,8,0,,thisis_cool,,,initial_study,0,0,0,153,8187,0.15,67005aU2Ueicc50ELDr7,14,image-keyboard-response,1,0,0,"studied only, not in trial",,,,3072
0,,,,2,r,False,,,,f,F,3,,1307,thisis_cool,1 (860).jpg,0.0-20.0-1.0-0.18,1,True,,0,False,,False,False,,False,False,,0,0,5,1,,,1,,,,0,,,,,images/1 (860).jpg,,FF,,,0,0,,thisis_cool,,,finalTest,,0,0,223,23683,0.40,67rCea6cPDN31vl6FYLx,988,image-keyboard-response,,,,final Foil,,,,2228
,False,,,2,r,,,,,,T_nontarget,3,,1307,thisis_cool,1 (122).jpg,0.0-11.0-2.0-0.8,1,False,True,0,,True,True,False,False,False,False,7,7,0,,0,,,1,,,,,,,,,images/1 (122).jpg,A,A,,9,9,0,,thisis_cool,,,initial_study,0,0,0,0,16444,0.28,6DgJERHWB2VpOu7yYHll,471,image-keyboard-response,1,0,0,"studied only, not in trial",,,,2228
0,,,,2,r,False,False,,,j,T_target,3,,1307,thisis_cool,1 (853).jpg,0.0-16.0-1.0-0.44,1,True,,0,True,,True,False,,True,False,,10,0,1,0,,,,,,,0,,,,,images/1 (853).jpg,,Dn,,,12,0,,thisis_cool,,,finalTest,,26,0,45,21594,0.37,6DhgD8T21V1lbhYFhDPR,810,image-keyboard-response,,,,"current target, in next trial",,,,2228
0,,,,2,r,False,,,,j,T_target,3,,1307,thisis_cool,1 (158).jpg,0.0-21.0-1.0-0.20,1,True,,0,True,,True,False,,True,False,,4,0,6,0,,,,,,,0,,,,,images/1 (158).jpg,,B,,,25,0,,thisis_cool,,,finalTest,,22,0,273,24283,0.41,6I8o6bJfNzrn6OOVO2zd,1038,image-keyboard-response,,,,"current target, not in next trial",,,,2228
0,,,,2,r,False,,,,f,F,3,,1307,thisis_cool,1 (2315).jpg,0.0-24.0-1.0-0.0,1,True,,0,False,,False,False,,False,False,,0,0,9,8,,,1,,,,0,,,,,images/1 (2315).jpg,,FF,,,0,0,,thisis_cool,,,finalTest,,0,0,397,25721,0.44,6KgvlgJ9ROkz8d1BOmaw,1162,image-keyboard-response,,,,final Foil,,,,2228
0,,,,2,r,False,False,False,,j,T_target,3,,1307,thisis_cool,1 (101).jpg,0.0-16.0-1.0-0.5,1,True,,0,True,,True,False,,True,True,,6,7,1,0,,,,,,,0,,,,,images/1 (101).jpg,,Dn,,,21,0,,thisis_cool,,,finalTest,,10,23,6,21139,0.36,6NbfLTUled4OjcLxVDZv,771,image-keyboard-response,,,,"current target, in next trial",,,,2228
0,,,,2,r,False,,,,f,F,3,,1307,thisis_cool,1 (403).jpg,0.0-21.0-1.0-0.42,1,True,,0,False,,False,False,,False,False,,0,0,6,6,,,1,,,,0,,,,,images/1 (403).jpg,,FF,,,0,0,,thisis_cool,,,finalTest,,0,0,295,24547,0.42,6R55m9dBPoUyJLMgNWsl,1060,image-keyboard-response,,,,final Foil,,,,2228
0,,,,2,r,False,,,,j,T_nontarget,3,,1307,thisis_cool,1 (27).jpg,0.0-17.0-1.0-0.15,1,True,,0,True,,True,False,,False,False,,6,0,2,0,,,,,,,0,,,,,images/1 (27).jpg,,A,,,12,0,,thisis_cool,,,finalTest,,0,0,76,21947,0.37,6UgZBQLNLddzgHZkdb5e,841,image-keyboard-response,,,,"studied only, not in trial",,,,2228
,False,,,2,r,,,,,,T_nontarget,3,,1307,thisis_cool,1 (1220).jpg,0.0-14.0-2.0-0.14,1,True,True,0,,True,True,False,False,False,False,10,10,0,7,0,,,1,,,,,,,,,images/1 (1220).jpg,A,A,,15,15,0,,thisis_cool,,,initial_study,0,0,0,304,20077,0.34,6X8bg2h84rMlXW9c1wLs,705,image-keyboard-response,1,0,0,"studied only, not in trial",,,,2228
,False,,,2,r,,,,,,T_nontarget,3,,1307,thisis_cool,1 (1747).jpg,0.0-12.0-2.0-0.8,1,True,True,0,,True,True,False,False,False,False,8,8,0,8,0,,,1,,,,,,,,,images/1 (1747).jpg,A,A,,9,9,0,,thisis_cool,,,initial_study,0,0,0,366,17634,0.30,6XRprT1PizFbQGAQs2UJ,547,image-keyboard-response,1,0,0,"studied only, not in trial",,,,2228
,False,,,2,r,,,,,,T_nontarget,3,,1307,thisis_cool,1 (215).jpg,0.0-8.0-2.0-0.14,1,True,True,0,,True,True,False,False,False,False,4,4,0,10,0,,,1,,,,,,,,,images/1 (215).jpg,A,A,,15,15,0,,thisis_cool,,,initial_study,0,0,0,455,12951,0.22,6d3fWx3zoc3YUl4ujVOM,249,image-keyboard-response,1,0,0,"studied only, not in trial",,,,2228
0,,,,2,r,False,,,,f,F,3,,1307,thisis_cool,1 (423).jpg,0.0-16.0-1.0-0.3,1,True,,0,False,,False,False,,False,False,,0,0,1,4,,,1,,,,0,,,,,images/1 (423).jpg,,FF,,,0,0,,thisis_cool,,,finalTest,,0,0,4,21117,0.36,6k1LMWMfSngFmu11DiVf,769,image-keyboard-response,,,,final Foil,,,,2228
0,False,,,2,r,False,False,,,j,T_target,3,,1307,thisis_cool,1 (60).jpg,0.0-9.0-10.0-0.8,1,False,True,0,False,True,True,False,True,True,False,5,5,False,,0,,,1,,,,0,,,,,images/1 (60).jpg,B,B,,7,7,0,,thisis_cool,,,initialTest_response,9,9,0,0,14669,0.25,6kCyvaBFfPasv7m9wkn8,363,image-keyboard-response,1,1,0,"current target, not in next trial",,,,2228
0,,,,2,r,False,,,,f,F,3,,1307,thisis_cool,1 (626).jpg,0.0-16.0-1.0-0.10,1,True,,0,False,,False,False,,False,False,,0,0,1,4,,,1,,,,0,,,,,images/1 (626).jpg,,FF,,,0,0,,thisis_cool,,,finalTest,,0,0,11,21197,0.36,6qeTYjnVzo7JMmomS26V,776,image-keyboard-response,,,,final Foil,,,,2228
0,,,,2,r,False,,,,j,T_nontarget,3,,1307,thisis_cool,1 (918).jpg,0.0-23.0-1.0-0.19,1,True,,0,True,,True,False,,False,False,,4,0,8,0,,,,,,,0,,,,,images/1 (918).jpg,,A,,,10,0,,thisis_cool,,,finalTest,,0,0,368,25399,0.43,6rCjJZlofP50XkPnMrUI,1133,image-keyboard-response,,,,"studied only, not in trial",,,,2228
,,,,2,r,,,,,,,3,,1307,thisis_cool,,0.0-6.0-7.0-0.0,1,,,0,,,,,,,,,,,,,,,,,,,,,,,,<p background:white>INCORRECT!</p>,,,,,,,,thisis_cool,,,promptfeedback,,,,,10892,0.19,6uEibdxXGkWII87tyyzy,124,html-keyboard-response,,,,,,,,2228
0,,,,2,r,False,,,,f,F,3,,1307,thisis_cool,1 (997).jpg,0.0-23.0-1.0-0.16,1,True,,0,False,,False,False,,False,False,,0,0,8,1,,,1,,,,0,,,,,images/1 (997).jpg,,FF,,,0,0,,thisis_cool,,,finalTest,,0,0,365,25365,0.43,6vveIpkoyNmPjuD6HGny,1130,image-keyboard-response,,,,final Foil,,,,2228
0,True,,,2,r,False,,False,,f,T_foil,3,,1307,thisis_cool,1 (1793).jpg,0.0-9.0-10.0-0.17,1,True,False,0,False,False,True,False,True,False,True,5,4,5,,0,,,2,,,,0,,,,,images/1 (1793).jpg,Cn,Cn,,0,5,0,,thisis_cool,,,initialTest_response,18,0,18,279,14876,0.26,6z4VPbkwlzVadJUnqDj9,372,image-keyboard-response,1,0,1,"studied only, in next trial, from last trial",,,,2228
,False,,,2,r,,,,,,T_target,3,,1307,thisis_cool,1 (2051).jpg,0.0-12.0-2.0-0.26,1,False,True,0,,True,True,False,True,True,False,8,8,0,,0,,,1,,,,,,,,,images/1 (2051).jpg,B,B,,27,27,0,,thisis_cool,,,initial_study,8,8,0,0,17841,0.31,72LJigVtIzgNv6a21PZ3,565,image-keyboard-response,1,1,0,"current target, not in next trial",,,,2228
,True,,,2,r,,,,,,T_target,3,,1307,thisis_cool,1 (1109).jpg,0.0-8.0-2.0-0.15,1,True,True,0,,True,True,False,True,True,True,4,4,5,5,0,,,1,,,,,,,,,images/1 (1109).jpg,Dn+1,Dn,,16,16,0,,thisis_cool,,,initial_study,10,10,8,221,12962,0.23,74P59DY0ubOMnZa2rGoV,250,image-keyboard-response,1,1,1,"current target, in next trial",,,,2228
,True,,,2,r,,,,,,T_nontarget,3,,1307,thisis_cool,1 (2206).jpg,0.0-7.0-2.0-0.25,1,True,True,0,,True,True,False,False,False,True,3,3,4,1,0,,,1,,,,,,,,,images/1 (2206).jpg,Cn+1,Cn,,26,26,0,,thisis_cool,,,initial_study,0,0,4,50,11884,0.21,77XdTofVtPxAZpxOqBwW,184,image-keyboard-response,1,0,1,"studied only, in next trial",,,,2228
0,,,,2,r,False,False,False,,j,T_foil,3,,1307,thisis_cool,1 (1225).jpg,0.0-16.0-1.0-0.52,1,True,,0,True,,False,False,,True,True,,5,6,1,5,,,,,,,0,,,,,images/1 (1225).jpg,,Fnn,,,0,0,,thisis_cool,,,finalTest,,11,2,53,21684,0.37,78PLwH4iqjHdFVsCM7Jy,818,image-keyboard-response,,,,"tested only, in next trial",,,,2228
,,,,2,r,,,,,,,3,,1307,thisis_cool,,0.0-7.0-0.0-0.0,1,,,0,,,,,,,,,,,,,,,,,,,,,,,,"
    <p style='text-align: justify;color: black;background: white;font: caption-;''>
        Press the 'enter' key to see the next list of pictures. </p>
    ",,,,,,,,thisis_cool,,,,,,,,11575,0.20,7JzDSjDCVhKOWHYwy2uL,157,html-keyboard-response,,,,,,,,2228
,,,,2,r,,,,,,,3,,1307,thisis_cool,,0.0-15.0-0.0,1,,,0,,,,,,,,,,,,,,,,,,,,,,,,"<p style='text-align: justify;color: black;background: white;font: caption-;paddingRight =30px; paddingLeft =30px;'>
    <strong>You have now completed the first part of the study. <br>

     <strong>You will now see a very long series of test pictures.</strong> For each test,respond with the <FONT color=""#C41E3A""><strong>""J""</FONT></strong> key to indicate you have seen this picture some time during first part of the experiment, whether <FONT color=""#C41E3A""><strong>studied or tested</strong> on ANY list</FONT>. You will press the <FONT color=""#C41E3A""><strong>""F""</FONT></strong> key to indicate that you have NEVER seen this pictures in first part of the study.</p>
  <p style='text-align: justify;color: black;background: white;font: caption-;paddingRight =10px; paddingLeft =10px;''>After each respond, your accumulated accuracy will be presented like before.  </p>


<p style='text-align: justify;color: black;background: white;font: caption-;paddingRight =30px; paddingLeft =30px;'>If you have read and understood these instructions, press the RETURN/ENTER key to go to the testing. </p>",,,,,,,,thisis_cool,,,finalt_instructions,,,,,21060,0.36,7Wmw4PpeaQLkd6eYn12i,765,html-keyboard-response,,,,,,,,2228
0,,,,2,r,False,,,,f,F,3,,1307,thisis_cool,1 (1820).jpg,0.0-23.0-1.0-0.2,1,True,,0,False,,False,False,,False,False,,0,0,8,2,,,1,,,,0,,,,,images/1 (1820).jpg,,FF,,,0,0,,thisis_cool,,,finalTest,,0,0,351,25202,0.43,7aXTE6tBgzghc2du9Gvr,1116,image-keyboard-response,,,,final Foil,,,,2228
0,,,,2,r,False,,,,f,F,3,,1307,thisis_cool,1 (1377).jpg,0.0-24.0-1.0-0.37,1,True,,0,False,,False,False,,False,False,,0,0,9,7,,,1,,,,0,,,,,images/1 (1377).jpg,,FF,,,0,0,,thisis_cool,,,finalTest,,0,0,434,26164,0.45,7cJdEdT1KSjr8vOGuPWI,1199,image-keyboard-response,,,,final Foil,,,,2228
,False,,,2,r,,,,,,T_nontarget,3,,1307,thisis_cool,1 (209).jpg,0.0-6.0-2.0-0.10,1,True,True,0,,True,True,False,False,False,False,2,2,0,5,0,,,1,,,,,,,,,images/1 (209).jpg,A,A,,11,11,0,,thisis_cool,,,initial_study,0,0,0,210,10536,0.18,7gVhhYgaKdtU19GA3acR,93,image-keyboard-response,1,0,0,"studied only, not in trial",,,,2228
,False,,,2,r,,,,,,T_target,3,,1307,thisis_cool,1 (212).jpg,0.0-11.0-2.0-0.29,1,True,True,0,,True,True,False,True,True,False,7,7,0,7,0,,,1,,,,,,,,,images/1 (212).jpg,B,B,,30,30,0,,thisis_cool,,,initial_study,15,15,0,342,16684,0.29,7goYmRaxLlO66nvoBsvu,492,image-keyboard-response,1,1,0,"current target, not in next trial",,,,2228
,,,,2,r,,,,,,,3,,1728,thisis_cool,,0.0-5.0-1.0-0.0,0,,,0,,,,,,,,,,,,,,,,,,,,,,,,"<div style=""font-size:60px;"">+</div>",,,,,,,,thisis_cool,,,fixation,,,,,8089,0.14,7i5InS6qEO6wRteVDrsM,6,html-keyboard-response,,,,,,,,3072
0,,,,2,r,False,,,,f,F,3,,1307,thisis_cool,1 (902).jpg,0.0-19.0-1.0-0.8,1,True,,0,False,,False,False,,False,False,,0,0,4,10,,,1,,,,0,,,,,images/1 (902).jpg,,FF,,,0,0,,thisis_cool,,,finalTest,,0,0,165,22997,0.39,7nMCFuEUXH9BxVKMreqy,930,image-keyboard-response,,,,final Foil,,,,2228
0,,,,2,r,False,,,,f,F,3,,1307,thisis_cool,1 (276).jpg,0.0-21.0-1.0-0.0,1,True,,0,False,,False,False,,False,False,,0,0,6,6,,,1,,,,0,,,,,images/1 (276).jpg,,FF,,,0,0,,thisis_cool,,,finalTest,,0,0,253,24042,0.41,7nkUjpnCv70uokDM7MIR,1018,image-keyboard-response,,,,final Foil,,,,2228
,,,,2,r,,,,,,,3,,1307,thisis_cool,,0.0-13.0-3.0-0.0,1,,,0,,,,,,,,,,,,,,,,,,,,,,,,Summing up the digits as they appear,,,,,,,,thisis_cool,,,prompt,,,,,19059,0.33,7xTPpMvAxXONIvV7TSfK,645,html-keyboard-response,,,,,,,,2228
,,,,2,r,,,,,,,3,,1307,thisis_cool,,0.0-10.0-5.0-0.1,1,,,0,,,,,,,,6,,,,,,,,,2,,,,,,,9,,,9,,,,,thisis_cool,,51,digitPresentation,,,,,15555,0.27,7zNBLj9neKHfVGtNQnLj,420,html-keyboard-response,,,,,,,,2228
0,False,,,2,r,False,False,,,f,T_foil,3,,1307,thisis_cool,1 (762).jpg,0.0-5.0-10.0-0.27,1,True,True,0,False,False,False,False,True,True,False,1,1,False,9,0,,,1,,,,0,,,,,images/1 (762).jpg,Fn+1,Fn,,0,0,0,,thisis_cool,,,initialTest_response,28,28,0,398,10326,0.18,824h9MabtLBXRIFFzQRM,78,image-keyboard-response,0,1,0,"tested only, not in next trial",,,,2228
0,False,,,2,r,False,False,,,j,T_target,3,,1307,thisis_cool,1 (482).jpg,0.0-13.0-10.0-0.20,1,True,True,0,False,True,True,False,True,True,False,9,9,False,,0,,,1,,,,0,,,,,images/1 (482).jpg,B,B,,14,14,0,,thisis_cool,,,initialTest_response,21,21,0,427,19668,0.34,828uayHEl1uXdpgflIrl,679,image-keyboard-response,1,1,0,"current target, not in next trial",,,,2228
0,,,,2,r,False,,,,f,F,3,,1307,thisis_cool,1 (821).jpg,0.0-24.0-1.0-0.3,1,True,,0,False,,False,False,,False,False,,0,0,9,9,,,1,,,,0,,,,,images/1 (821).jpg,,FF,,,0,0,,thisis_cool,,,finalTest,,0,0,400,25760,0.44,87gF5o6pMS4I943q8phb,1165,image-keyboard-response,,,,final Foil,,,,2228
0,False,,,2,r,False,False,,,j,T_target,3,,1307,thisis_cool,1 (82).jpg,0.0-5.0-10.0-0.28,1,True,True,0,False,True,True,False,True,True,False,1,1,False,,0,,,1,,,,0,,,,,images/1 (82).jpg,B,B,,25,25,0,,thisis_cool,,,initialTest_response,29,29,0,197,10352,0.18,88lk7Jzq9u0yjow45U1B,79,image-keyboard-response,1,1,0,"current target, not in next trial",,,,2228
0,,,,2,r,False,,,,f,F,3,,1307,thisis_cool,1 (2192).jpg,0.0-23.0-1.0-0.37,1,True,,0,False,,False,False,,False,False,,0,0,8,3,,,1,,,,0,,,,,images/1 (2192).jpg,,FF,,,0,0,,thisis_cool,,,finalTest,,0,0,386,25602,0.44,8IlFGMAFMjGYlkrYa9OH,1151,image-keyboard-response,,,,final Foil,,,,2228
,True,,,2,r,,,,,,T_nontarget,3,,1307,thisis_cool,1 (190).jpg,0.0-13.0-2.0-0.7,1,False,True,0,,True,True,False,False,False,True,9,9,10,,0,,,1,,,,,,,,,images/1 (190).jpg,Cn+1,Cn,,8,8,0,,thisis_cool,,,initial_study,0,0,4,0,18803,0.32,8J62vdoj9bJY819l24RM,622,image-keyboard-response,1,0,1,"studied only, in next trial",,,,2228
0,,,,2,r,False,,,,j,T_nontarget,3,,1307,thisis_cool,1 (1531).jpg,0.0-23.0-1.0-0.3,1,True,,0,True,,True,False,,False,False,,3,0,8,0,,,,,,,0,,,,,images/1 (1531).jpg,,A,,,3,0,,thisis_cool,,,finalTest,,0,0,352,25213,0.43,8MPrHKGQgzAYGvzk9fTg,1117,image-keyboard-response,,,,"studied only, not in trial",,,,2228
,False,,,2,r,,,,,,T_target,3,,1307,thisis_cool,1 (1052).jpg,0.0-9.0-2.0-0.5,1,False,True,0,,True,True,False,True,True,False,5,5,0,,0,,,1,,,,,,,,,images/1 (1052).jpg,B,B,,6,6,0,,thisis_cool,,,initial_study,25,25,0,0,14050,0.24,8NkNFmYvUT7tcOnI3AN7,316,image-keyboard-response,1,1,0,"current target, not in next trial",,,,2228
0,True,,,2,r,False,False,,,j,T_target,3,,1307,thisis_cool,1 (692).jpg,0.0-9.0-10.0-0.27,1,True,True,0,False,True,True,False,True,True,True,5,5,6,,0,,,1,,,,0,,,,,images/1 (692).jpg,Dn+1,Dn,,3,3,0,,thisis_cool,,,initialTest_response,28,28,16,107,15095,0.26,8PaD4oSfPTpxsw7HsFoi,382,image-keyboard-response,1,1,1,"current target, in next trial",,,,2228
,,,,2,r,,,,,,,3,,1728,thisis_cool,,0.0-5.0-4.0-0.0,0,,,0,,,,,,,,,,,,,,,,,,,,,,,,"<div style=""font-size:60px;"">+</div>",,,,,,,,thisis_cool,,,fixation,,,,,8463,0.15,8QqVmAruqpW5C0HgKPzL,38,html-keyboard-response,,,,,,,,3072
0,False,,,2,r,False,False,,,j,T_target,3,,1307,thisis_cool,1 (863).jpg,0.0-10.0-10.0-0.27,1,True,True,0,False,True,True,False,True,True,False,6,6,False,,0,,,1,,,,0,,,,,images/1 (863).jpg,B,B,,19,19,0,,thisis_cool,,,initialTest_response,28,28,0,93,16265,0.28,8QwsDFBSkqdmNOKFEaPK,458,image-keyboard-response,1,1,0,"current target, not in next trial",,,,2228
0,,,,2,r,False,,,,f,F,3,,1307,thisis_cool,1 (2408).jpg,0.0-22.0-1.0-0.31,1,True,,0,False,,False,False,,False,False,,0,0,7,5,,,1,,,,0,,,,,images/1 (2408).jpg,,FF,,,0,0,,thisis_cool,,,finalTest,,0,0,332,24980,0.43,8RZYEoShhBRn9wLHbq0Y,1097,image-keyboard-response,,,,final Foil,,,,2228
,False,,,2,r,,,,,,T_nontarget,3,,1307,thisis_cool,1 (536).jpg,0.0-10.0-2.0-0.23,1,False,True,0,,True,True,False,False,False,False,6,6,0,,0,,,1,,,,,,,,,images/1 (536).jpg,A,A,,24,24,0,,thisis_cool,,,initial_study,0,0,0,0,15443,0.27,8Tc8OgSJUv5XnwnMpsXe,410,image-keyboard-response,1,0,0,"studied only, not in trial",,,,2228
,,,,2,r,,,,,,,3,,1307,thisis_cool,,0.0-10.0-7.0-0.0,1,,,0,,,,,,,,,,,,,,,,,,,,,,,,<p background:white>INCORRECT!</p>,,,,,,,,thisis_cool,,,promptfeedback,,,,,15639,0.27,8W12aIHfzhwsUfWQUkxK,428,html-keyboard-response,,,,,,,,2228
0,,,,2,r,False,,,,f,F,3,,1307,thisis_cool,1 (766).jpg,0.0-18.0-1.0-0.46,1,True,,0,False,,False,False,,False,False,,0,0,3,0,,,1,,,,0,,,,,images/1 (766).jpg,,FF,,,0,0,,thisis_cool,,,finalTest,,0,0,155,22882,0.39,8WDDLV1gsmMXy4zqwnuZ,920,image-keyboard-response,,,,final Foil,,,,2228
0,True,,,2,r,False,,False,,f,T_foil,3,,1307,thisis_cool,1 (2374).jpg,0.0-11.0-10.0-0.23,1,True,False,0,False,False,True,False,True,False,True,7,6,7,,0,,,2,,,,0,,,,,images/1 (2374).jpg,Cn,Cn,,0,26,0,,thisis_cool,,,initialTest_response,24,0,24,169,17362,0.30,8cchzfpmCyN3yGmNQiWk,530,image-keyboard-response,1,0,1,"studied only, in next trial, from last trial",,,,2228
0,,,,2,r,False,,,,j,T_foil,3,,1307,thisis_cool,1 (2350).jpg,0.0-20.0-1.0-0.7,1,True,,0,True,,False,False,,True,False,,4,False,5,4,,,,,,,0,,,,,images/1 (2350).jpg,,Fn,,,0,0,,thisis_cool,,,finalTest,,25,0,212,23551,0.40,8gdkCLdqPd6oIgsPQL77,977,image-keyboard-response,,,,"tested only, not in next trial",,,,2228
0,,,,2,r,False,,,,f,F,3,,1307,thisis_cool,1 (2138).jpg,0.0-25.0-1.0-0.28,1,True,,0,False,,False,False,,False,False,,0,0,10,9,,,1,,,,0,,,,,images/1 (2138).jpg,,FF,,,0,0,,thisis_cool,,,finalTest,,0,0,473,26614,0.45,8nfITmG2EpWQSJvdp9Eq,1238,image-keyboard-response,,,,final Foil,,,,2228
0,,,,2,r,False,,,,j,T_nontarget,3,,1307,thisis_cool,1 (2120).jpg,0.0-24.0-1.0-0.47,1,True,,0,True,,True,False,,False,False,,6,0,9,0,,,,,,,0,,,,,images/1 (2120).jpg,,A,,,1,0,,thisis_cool,,,finalTest,,0,0,444,26282,0.45,8pkmflOaHLApKdcUPPkp,1209,image-keyboard-response,,,,"studied only, not in trial",,,,2228
,True,,,2,r,,,,,,T_target,3,,1307,thisis_cool,1 (624).jpg,0.0-13.0-2.0-0.9,1,True,True,0,,True,True,False,True,True,True,9,9,10,10,0,,,1,,,,,,,,,images/1 (624).jpg,Dn+1,Dn,,10,10,0,,thisis_cool,,,initial_study,3,3,2,454,18825,0.32,8rk1Pb1JKCvKlqZO30cn,624,image-keyboard-response,1,1,1,"current target, in next trial",,,,2228
0,False,,,2,r,False,False,,,j,T_target,3,,1307,thisis_cool,1 (1551).jpg,0.0-12.0-10.0-0.13,1,True,True,0,False,True,True,False,True,True,False,8,8,False,,0,,,1,,,,0,,,,,images/1 (1551).jpg,B,B,,15,15,0,,thisis_cool,,,initialTest_response,14,14,0,71,18325,0.31,8uJrYjG7QQmWJtxWVy2y,596,image-keyboard-response,1,1,0,"current target, not in next trial",,,,2228
0,,,,2,r,False,,,,f,F,3,,1307,thisis_cool,1 (161).jpg,0.0-16.0-1.0-0.24,1,True,,0,False,,False,False,,False,False,,0,0,1,0,,,1,,,,0,,,,,images/1 (161).jpg,,FF,,,0,0,,thisis_cool,,,finalTest,,0,0,25,21361,0.37,8yRvFV8tLqdUuAYwn64Q,790,image-keyboard-response,,,,final Foil,,,,2228
0,True,,,2,r,False,False,,,j,T_target,3,,1307,thisis_cool,1 (1250).jpg,0.0-7.0-10.0-0.9,1,True,True,0,False,True,True,False,True,True,True,3,3,4,,0,,,1,,,,0,,,,,images/1 (1250).jpg,Dn+1,Dn,,27,27,0,,thisis_cool,,,initialTest_response,10,10,21,302,12298,0.21,8zvU6ouZHyrpVFBzbRQI,212,image-keyboard-response,1,1,1,"current target, in next trial",,,,2228
0,False,,,2,r,False,False,,,j,T_target,3,,1307,thisis_cool,1 (2304).jpg,0.0-13.0-10.0-0.3,1,True,True,0,False,True,True,False,True,True,False,9,9,False,,0,,,1,,,,0,,,,,images/1 (2304).jpg,B,B,,13,13,0,,thisis_cool,,,initialTest_response,4,4,0,264,19285,0.33,9A2WKjKu7bPDqGRAZ3Dw,662,image-keyboard-response,1,1,0,"current target, not in next trial",,,,2228
,False,,,2,r,,,,,,T_nontarget,3,,1307,thisis_cool,1 (1939).jpg,0.0-7.0-2.0-0.22,1,True,True,0,,True,True,False,False,False,False,3,3,0,5,0,,,1,,,,,,,,,images/1 (1939).jpg,A,A,,23,23,0,,thisis_cool,,,initial_study,0,0,0,240,11852,0.21,9Ady6kxm7a1vj63DuyvU,181,image-keyboard-response,1,0,0,"studied only, not in trial",,,,2228
,,,,2,r,,,,,,,3,,1307,thisis_cool,,0.0-6.0-5.0-0.7,1,,,0,,,,,,,,2,,,,,,,,,8,,,,,,,5,,,5,,,,,thisis_cool,,52,digitPresentation,,,,,10868,0.19,9BHi8wAbQjaEClZcszLW,122,html-keyboard-response,,,,,,,,2228
0,,,,2,r,False,,,,f,F,3,,1307,thisis_cool,1 (362).jpg,0.0-17.0-1.0-0.12,1,True,,0,False,,False,False,,False,False,,0,0,2,0,,,1,,,,0,,,,,images/1 (362).jpg,,FF,,,0,0,,thisis_cool,,,finalTest,,0,0,73,21912,0.37,9GM5LGABIpMxGj2Imj97,838,image-keyboard-response,,,,final Foil,,,,2228
,True,,,2,r,,,,,,T_target,3,,1307,thisis_cool,1 (1083).jpg,0.0-7.0-2.0-0.17,1,False,True,0,,True,True,False,True,True,True,3,3,4,,0,,,1,,,,,,,,,images/1 (1083).jpg,Dn+1,Dn,,18,18,0,,thisis_cool,,,initial_study,12,12,19,0,11794,0.21,9LuC6Akn3fTFtklo2LIA,176,image-keyboard-response,1,1,1,"current target, in next trial",,,,2228
,,,,2,r,,,,,,,3,,1307,thisis_cool,,0.0-13.0-5.0-0.1,1,,,0,,,,,,,,9,,,,,,,,,2,,,,,,,9,,,9,,,,,thisis_cool,,60,digitPresentation,,,,,19092,0.33,9NKn63cwsoIYgFMg42FL,648,html-keyboard-response,,,,,,,,2228
,,,,2,r,,,,,,,3,,1307,thisis_cool,,0.0-11.0-3.0-0.0,1,,,0,,,,,,,,,,,,,,,,,,,,,,,,Summing up the digits as they appear,,,,,,,,thisis_cool,,,prompt,,,,,16699,0.29,9RU2P2MRYLb1PL3I4oaZ,493,html-keyboard-response,,,,,,,,2228
0,,,,2,r,False,,,,j,T_nontarget,3,,1307,thisis_cool,1 (1374).jpg,0.0-16.0-1.0-0.0,1,True,,0,True,,True,False,,False,False,,10,0,1,0,,,,,,,0,,,,,images/1 (1374).jpg,,A,,,1,0,,thisis_cool,,,finalTest,,0,0,1,21072,0.36,9S3oaCiXeC7bygZ7LxlJ,766,image-keyboard-response,,,,"studied only, not in trial",,,,2228
0,False,,,2,r,False,False,,,j,T_target,3,,1307,thisis_cool,1 (1834).jpg,0.0-10.0-10.0-0.26,1,False,True,0,False,True,True,False,True,True,False,6,6,False,,0,,,1,,,,0,,,,,images/1 (1834).jpg,B,B,,9,9,0,,thisis_cool,,,initialTest_response,27,27,0,0,16243,0.28,9S6lJU7Gz6bTs51NRpgU,457,image-keyboard-response,1,1,0,"current target, not in next trial",,,,2228
0,,,,2,r,False,,,,f,F,3,,1307,thisis_cool,1 (106).jpg,0.0-16.0-1.0-0.55,1,True,,0,False,,False,False,,False,False,,0,0,1,0,,,1,,,,0,,,,,images/1 (106).jpg,,FF,,,0,0,,thisis_cool,,,finalTest,,0,0,56,21718,0.37,9SQcCTXMoTbvbDomCj4J,821,image-keyboard-response,,,,final Foil,,,,2228
,,,,2,r,,,,,,,3,,1728,thisis_cool,,0.0-5.0-9.0-0.0,0,,,0,,,,,,,,,,,,,,,,,,,,,,,,"<div style=""font-size:60px;"">+</div>",,,,,,,,thisis_cool,,,fixation,,,,,8594,0.15,9Szv8nOU11LvzrdW21nV,50,html-keyboard-response,,,,,,,,3072
0,,,,2,r,False,,,,f,F,3,,1307,thisis_cool,1 (484).jpg,0.0-16.0-1.0-0.57,1,True,,0,False,,False,False,,False,False,,0,0,1,7,,,1,,,,0,,,,,images/1 (484).jpg,,FF,,,0,0,,thisis_cool,,,finalTest,,0,0,58,21741,0.37,9XEq6ATXUj0Wbvc0ZwjA,823,image-keyboard-response,,,,final Foil,,,,2228
0,,,,2,r,False,,,,j,T_foil,3,,1307,thisis_cool,1 (996).jpg,0.0-25.0-1.0-0.12,1,True,,0,True,,False,False,,True,False,,6,False,10,6,,,,,,,0,,,,,images/1 (996).jpg,,Fn,,,0,0,,thisis_cool,,,finalTest,,22,0,457,26428,0.45,9XcI3eiUGxcqm9lSTGhy,1222,image-keyboard-response,,,,"tested only, not in next trial",,,,2228
,False,,,2,r,,,,,,T_nontarget,3,,1307,thisis_cool,1 (999).jpg,0.0-9.0-2.0-0.21,1,False,True,0,,True,True,False,False,False,False,5,5,0,,0,,,1,,,,,,,,,images/1 (999).jpg,A,A,,22,22,0,,thisis_cool,,,initial_study,0,0,0,0,14238,0.25,9XjdtkDelik4Dx3D9oWs,332,image-keyboard-response,1,0,0,"studied only, not in trial",,,,2228
,,,,2,r,,,,,,,3,,1307,thisis_cool,,0.0-12.0-5.0-0.4,1,,,0,,,,,,,,8,,,,,,,,,5,,,,,,,5,,,5,,,,,thisis_cool,,53,digitPresentation,,,,,17947,0.31,9ham5lLubdi1g84UnKdE,575,html-keyboard-response,,,,,,,,2228
0,False,,,2,r,False,False,,,j,T_target,3,,1307,thisis_cool,1 (2222).jpg,0.0-14.0-10.0-0.26,1,True,True,0,False,True,True,False,True,True,False,10,10,0,,0,,,1,,,,0,,,,,images/1 (2222).jpg,B,B,,14,14,0,,thisis_cool,,,initialTest_response,27,27,0,354,20974,0.36,9ku96dNuT8x3fQCmVeMR,761,image-keyboard-response,1,1,0,"current target, not in next trial",,,,2228
0,,,,2,r,False,,,,f,F,3,,1307,thisis_cool,1 (979).jpg,0.0-18.0-1.0-0.11,1,True,,0,False,,False,False,,False,False,,0,0,3,4,,,1,,,,0,,,,,images/1 (979).jpg,,FF,,,0,0,,thisis_cool,,,finalTest,,0,0,120,22463,0.38,9mUhjZw4l94maCFGxbOX,885,image-keyboard-response,,,,final Foil,,,,2228
0,,,,2,r,False,,,,f,F,3,,1307,thisis_cool,1 (334).jpg,0.0-23.0-1.0-0.8,1,True,,0,False,,False,False,,False,False,,0,0,8,0,,,1,,,,0,,,,,images/1 (334).jpg,,FF,,,0,0,,thisis_cool,,,finalTest,,0,0,357,25268,0.43,9tqKovkHproX8eH23FeR,1122,image-keyboard-response,,,,final Foil,,,,2228
0,False,,,2,r,False,False,,,f,T_foil,3,,1307,thisis_cool,1 (111).jpg,0.0-8.0-10.0-0.1,1,False,True,0,False,False,False,False,True,True,False,4,4,False,,0,,,1,,,,0,,,,,images/1 (111).jpg,Fn+1,Fn,,0,0,0,,thisis_cool,,,initialTest_response,2,2,0,0,13323,0.23,9uhlvgNZpYfCJcNjBX5p,280,image-keyboard-response,0,1,0,"tested only, not in next trial",,,,2228
0,,,,2,r,False,,,,j,T_foil,3,,1307,thisis_cool,1 (762).jpg,0.0-24.0-1.0-0.1,1,True,,0,True,,False,False,,True,False,,1,False,9,1,,,,,,,0,,,,,images/1 (762).jpg,,Fn,,,0,0,,thisis_cool,,,finalTest,,28,0,398,25733,0.44,9uzlwcViX8BnPCCeLebC,1163,image-keyboard-response,,,,"tested only, not in next trial",,,,2228
0,,,,2,r,False,,,,f,F,3,,1307,thisis_cool,1 (1244).jpg,0.0-20.0-1.0-0.15,1,True,,0,False,,False,False,,False,False,,0,0,5,10,,,1,,,,0,,,,,images/1 (1244).jpg,,FF,,,0,0,,thisis_cool,,,finalTest,,0,0,220,23651,0.40,9vFshCW1LnJHhlpISYe0,985,image-keyboard-response,,,,final Foil,,,,2228
,False,,,2,r,,,,,,T_nontarget,3,,1728,thisis_cool,1 (1829).jpg,0.0-5.0-2.0-0.12,0,True,True,0,,True,True,False,False,False,False,1,1,0,4,0,,,1,,,,,,,,,images/1 (1829).jpg,A,A,,13,13,0,,thisis_cool,,,initial_study,0,0,0,182,8246,0.15,9vHrKMKs7FDf5Q6zZFHm,19,image-keyboard-response,1,0,0,"studied only, not in trial",,,,3072
,True,,,2,r,,,,,,T_nontarget,3,,1307,thisis_cool,1 (86).jpg,0.0-14.0-2.0-0.15,1,True,True,0,,True,True,False,False,False,False,10,10,0,8,0,,,1,,,,,,,,,images/1 (86).jpg,Cn+1,Cn,,16,16,0,,thisis_cool,,,initial_study,0,0,0,361,20088,0.34,A2IIeIuk49kRcKljqB3C,706,image-keyboard-response,1,0,1,"studied only, in next trial",,,,2228
0,False,,,2,r,False,False,,,f,T_foil,3,,1307,thisis_cool,1 (1850).jpg,0.0-7.0-10.0-0.22,1,True,True,0,False,False,False,False,True,True,False,3,3,False,6,0,,,1,,,,0,,,,,images/1 (1850).jpg,Fn+1,Fn,,0,0,0,,thisis_cool,,,initialTest_response,23,23,0,275,12575,0.22,A4nrgGT619xBat5E19Ye,225,image-keyboard-response,0,1,0,"tested only, not in next trial",,,,2228
,False,,,2,r,,,,,,T_nontarget,3,,1307,thisis_cool,1 (1342).jpg,0.0-6.0-2.0-0.7,1,False,True,0,,True,True,False,False,False,False,2,2,0,,0,,,1,,,,,,,,,images/1 (1342).jpg,A,A,,8,8,0,,thisis_cool,,,initial_study,0,0,0,0,10499,0.18,A9ZfPLjpbpKPKlpQKAw8,90,image-keyboard-response,1,0,0,"studied only, not in trial",,,,2228
0,True,,,2,r,False,False,,,j,T_target,3,,1307,thisis_cool,1 (853).jpg,0.0-14.0-10.0-0.25,1,True,True,0,False,True,True,False,True,True,False,10,10,0,,0,,,1,,,,0,,,,,images/1 (853).jpg,Dn+1,Dn,,12,12,0,,thisis_cool,,,initialTest_response,26,26,0,45,20953,0.36,AAa2TRvWePUqfvHL29Ig,760,image-keyboard-response,1,1,1,"current target, in next trial",,,,2228
0,,,,2,r,False,False,False,,j,T_foil,3,,1307,thisis_cool,1 (230).jpg,0.0-25.0-1.0-0.6,1,True,,0,True,,False,False,,True,True,,3,4,10,3,,,,,,,0,,,,,images/1 (230).jpg,,Fnn,,,0,0,,thisis_cool,,,finalTest,,1,18,451,26360,0.45,ABrwwl6OquatlFVKgSvU,1216,image-keyboard-response,,,,"tested only, in next trial",,,,2228
,False,,,2,r,,,,,,T_target,3,,1307,thisis_cool,1 (109).jpg,0.0-8.0-2.0-0.7,1,False,True,0,,True,True,False,True,True,False,4,4,0,,0,,,1,,,,,,,,,images/1 (109).jpg,B,B,,8,8,0,,thisis_cool,,,initial_study,14,14,0,0,12872,0.22,AEkrS7jWMO8e0Bsqzzzo,242,image-keyboard-response,1,1,0,"current target, not in next trial",,,,2228
,,,,2,r,,,,,,,3,,1307,thisis_cool,,0.0-9.0-7.0-0.0,1,,,0,,,,,,,,,,,,,,,,,,,,,,,,<p background:white>INCORRECT!</p>,,,,,,,,thisis_cool,,,promptfeedback,,,,,14455,0.25,AF8GZKRrDesjWbzfFDZt,352,html-keyboard-response,,,,,,,,2228
0,,,,2,r,False,,,,f,F,3,,1307,thisis_cool,1 (1025).jpg,0.0-16.0-1.0-0.17,1,True,,0,False,,False,False,,False,False,,0,0,1,9,,,1,,,,0,,,,,images/1 (1025).jpg,,FF,,,0,0,,thisis_cool,,,finalTest,,0,0,18,21276,0.36,AFTTWxffw4gDBIIXyLdW,783,image-keyboard-response,,,,final Foil,,,,2228
0,,,,2,r,False,,,,f,F,3,,1307,thisis_cool,1 (1445).jpg,0.0-21.0-1.0-0.8,1,True,,0,False,,False,False,,False,False,,0,0,6,4,,,1,,,,0,,,,,images/1 (1445).jpg,,FF,,,0,0,,thisis_cool,,,finalTest,,0,0,261,24138,0.41,AHIHWHMoPvWaF1ksbLRv,1026,image-keyboard-response,,,,final Foil,,,,2228
0,,,,2,r,False,,,,f,F,3,,1307,thisis_cool,1 (1836).jpg,0.0-19.0-1.0-0.10,1,True,,0,False,,False,False,,False,False,,0,0,4,10,,,1,,,,0,,,,,images/1 (1836).jpg,,FF,,,0,0,,thisis_cool,,,finalTest,,0,0,167,23019,0.39,AKlM2a15q9Uieh0ch9zJ,932,image-keyboard-response,,,,final Foil,,,,2228
0,,,,2,r,False,,,,j,T_target,3,,1307,thisis_cool,1 (884).jpg,0.0-20.0-1.0-0.41,1,True,,0,True,,True,False,,True,False,,2,0,5,0,,,,,,,0,,,,,images/1 (884).jpg,,B,,,5,0,,thisis_cool,,,finalTest,,13,0,246,23948,0.41,ALIwrm7j0H4lGlzfBOIe,1011,image-keyboard-response,,,,"current target, not in next trial",,,,2228
,False,,,2,r,,,,,,T_target,3,,1728,thisis_cool,1 (407).jpg,0.0-5.0-2.0-0.13,0,True,True,0,,True,True,False,True,True,False,1,1,0,1,0,,,1,,,,,,,,,images/1 (407).jpg,B,B,,14,14,0,,thisis_cool,,,initial_study,26,26,0,9,8257,0.15,ANIC3OAzEOuI6uOaLraM,20,image-keyboard-response,1,1,0,"current target, not in next trial",,,,3072
0,False,,,2,r,False,False,,,j,T_target,3,,1307,thisis_cool,1 (2101).jpg,0.0-8.0-10.0-0.6,1,False,True,0,False,True,True,False,True,True,False,4,4,False,,0,,,1,,,,0,,,,,images/1 (2101).jpg,B,B,,20,20,0,,thisis_cool,,,initialTest_response,7,7,0,0,13436,0.23,AQMFlp44IvAyeGmeJWbw,285,image-keyboard-response,1,1,0,"current target, not in next trial",,,,2228
0,,,,2,r,False,,,,f,F,3,,1307,thisis_cool,1 (772).jpg,0.0-22.0-1.0-0.46,1,True,,0,False,,False,False,,False,False,,0,0,7,3,,,1,,,,0,,,,,images/1 (772).jpg,,FF,,,0,0,,thisis_cool,,,finalTest,,0,0,347,25154,0.43,AYp9DrA9OZGbrCda7VvI,1112,image-keyboard-response,,,,final Foil,,,,2228
0,,,,2,r,False,,,,f,F,3,,1307,thisis_cool,1 (1329).jpg,0.0-16.0-1.0-0.14,1,True,,0,False,,False,False,,False,False,,0,0,1,2,,,1,,,,0,,,,,images/1 (1329).jpg,,FF,,,0,0,,thisis_cool,,,finalTest,,0,0,15,21242,0.36,AZvPafn7uQTTJUfAWSUh,780,image-keyboard-response,,,,final Foil,,,,2228
0,,,,2,r,False,,,,j,T_foil,3,,1307,thisis_cool,1 (858).jpg,0.0-16.0-1.0-0.18,1,True,,0,True,,False,False,,True,False,,1,False,1,1,,,,,,,0,,,,,images/1 (858).jpg,,Fn,,,0,0,,thisis_cool,,,finalTest,,19,0,19,21294,0.36,Agn1j0WOmWoPMSmX7qHO,784,image-keyboard-response,,,,"tested only, not in next trial",,,,2228
0,,,,2,r,False,,,,j,T_nontarget,3,,1307,thisis_cool,1 (2239).jpg,0.0-16.0-1.0-0.46,1,True,,0,True,,True,False,,False,False,,7,0,1,0,,,,,,,0,,,,,images/1 (2239).jpg,,A,,,26,0,,thisis_cool,,,finalTest,,0,0,47,21617,0.37,Aicgf6NyNzcE41Gg0rSL,812,image-keyboard-response,,,,"studied only, not in trial",,,,2228
0,True,,,2,r,False,False,,,j,T_target,3,,1307,thisis_cool,1 (877).jpg,0.0-12.0-10.0-0.11,1,False,True,0,False,True,True,False,True,True,True,8,8,9,,0,,,1,,,,0,,,,,images/1 (877).jpg,Dn+1,Dn,,30,30,0,,thisis_cool,,,initialTest_response,12,12,14,0,18283,0.31,Aj5cIGplaNWtbDXBeEf0,594,image-keyboard-response,1,1,1,"current target, in next trial",,,,2228
,False,,,2,r,,,,,,T_target,3,,1307,thisis_cool,1 (1688).jpg,0.0-11.0-2.0-0.15,1,True,True,0,,True,True,False,True,True,False,7,7,0,4,0,,,1,,,,,,,,,images/1 (1688).jpg,B,B,,16,16,0,,thisis_cool,,,initial_study,29,29,0,188,16528,0.28,AkhfbWrdzPXyLcQxzNPX,478,image-keyboard-response,1,1,0,"current target, not in next trial",,,,2228
0,,,,2,r,False,,,,f,F,3,,1307,thisis_cool,1 (1727).jpg,0.0-24.0-1.0-0.12,1,True,,0,False,,False,False,,False,False,,0,0,9,7,,,1,,,,0,,,,,images/1 (1727).jpg,,FF,,,0,0,,thisis_cool,,,finalTest,,0,0,409,25864,0.44,AorjDENhI0D82dnMkLVl,1174,image-keyboard-response,,,,final Foil,,,,2228
,False,,,2,r,,,,,,T_nontarget,3,,1728,thisis_cool,1 (2396).jpg,0.0-5.0-2.0-0.17,0,True,True,0,,True,True,False,False,False,False,1,1,0,9,0,,,1,,,,,,,,,images/1 (2396).jpg,A,A,,18,18,0,,thisis_cool,,,initial_study,0,0,0,404,8303,0.15,Ap3tQCU4LRRorjoZJsb6,24,image-keyboard-response,1,0,0,"studied only, not in trial",,,,3072
0,,,,2,r,False,,,,f,F,3,,1307,thisis_cool,1 (2173).jpg,0.0-18.0-1.0-0.24,1,True,,0,False,,False,False,,False,False,,0,0,3,4,,,1,,,,0,,,,,images/1 (2173).jpg,,FF,,,0,0,,thisis_cool,,,finalTest,,0,0,133,22618,0.39,AqbT4mLlNrADx7p3TFLO,898,image-keyboard-response,,,,final Foil,,,,2228
0,False,,,2,r,False,False,,,j,T_target,3,,1307,thisis_cool,1 (617).jpg,0.0-11.0-10.0-0.1,1,True,True,0,False,True,True,False,True,True,False,7,7,False,,0,,,1,,,,0,,,,,images/1 (617).jpg,B,B,,28,28,0,,thisis_cool,,,initialTest_response,2,2,0,22,16880,0.29,AvZxonVHOOxReZptTJ5U,508,image-keyboard-response,1,1,0,"current target, not in next trial",,,,2228
0,,,,2,r,False,,,,j,T_foil,3,,1307,thisis_cool,1 (1855).jpg,0.0-23.0-1.0-0.42,1,True,,0,True,,False,False,,True,False,,10,0,8,10,,,,,,,0,,,,,images/1 (1855).jpg,,Fn,,,0,0,,thisis_cool,,,finalTest,,29,0,391,25655,0.44,Avex046ZQqN71B0ROoRA,1156,image-keyboard-response,,,,"tested only, not in next trial",,,,2228
0,,,,2,r,False,,,,f,F,3,,1307,thisis_cool,1 (797).jpg,0.0-20.0-1.0-0.33,1,True,,0,False,,False,False,,False,False,,0,0,5,6,,,1,,,,0,,,,,images/1 (797).jpg,,FF,,,0,0,,thisis_cool,,,finalTest,,0,0,238,23857,0.41,B4piCHvVUdriArXfalFg,1003,image-keyboard-response,,,,final Foil,,,,2228
,False,,,2,r,,,,,,T_nontarget,3,,1307,thisis_cool,1 (1231).jpg,0.0-9.0-2.0-0.19,1,True,True,0,,True,True,False,False,False,False,5,5,0,9,0,,,1,,,,,,,,,images/1 (1231).jpg,A,A,,20,20,0,,thisis_cool,,,initial_study,0,0,0,435,14217,0.25,B5KlcgEkvIkvGvycAlfa,330,image-keyboard-response,1,0,0,"studied only, not in trial",,,,2228
0,True,,,2,r,False,,False,,f,T_foil,3,,1307,thisis_cool,1 (317).jpg,0.0-9.0-10.0-0.1,1,False,False,0,False,False,True,False,True,False,True,5,4,5,,0,,,2,,,,0,,,,,images/1 (317).jpg,Cn,Cn,,0,17,0,,thisis_cool,,,initialTest_response,2,0,2,0,14509,0.25,BLdQYAvgZiFj8Lki6keh,356,image-keyboard-response,1,0,1,"studied only, in next trial, from last trial",,,,2228
0,,,,2,r,False,,,,j,T_foil,3,,1307,thisis_cool,1 (1850).jpg,0.0-21.0-1.0-0.22,1,True,,0,True,,False,False,,True,False,,3,False,6,3,,,,,,,0,,,,,images/1 (1850).jpg,,Fn,,,0,0,,thisis_cool,,,finalTest,,23,0,275,24306,0.41,BMGleoNdcVfn4m1M8xHC,1040,image-keyboard-response,,,,"tested only, not in next trial",,,,2228
0,,,,2,r,False,,,,j,T_nontarget,3,,1307,thisis_cool,1 (1939).jpg,0.0-20.0-1.0-0.35,1,True,,0,True,,True,False,,False,False,,3,0,5,0,,,,,,,0,,,,,images/1 (1939).jpg,,A,,,23,0,,thisis_cool,,,finalTest,,0,0,240,23881,0.41,BYjz8TAqBmW8gEsCuPAG,1005,image-keyboard-response,,,,"studied only, not in trial",,,,2228
,False,,,2,r,,,,,,T_target,3,,1307,thisis_cool,1 (1276).jpg,0.0-14.0-2.0-0.20,1,True,True,0,,True,True,False,True,True,False,10,10,0,5,0,,,1,,,,,,,,,images/1 (1276).jpg,B,B,,21,21,0,,thisis_cool,,,initial_study,8,8,0,247,20146,0.34,BazeHCD4oSJ5nYindf2C,711,image-keyboard-response,1,1,0,"current target, not in next trial",,,,2228
0,True,,,2,r,False,False,,,j,T_target,3,,1307,thisis_cool,1 (269).jpg,0.0-11.0-10.0-0.4,1,False,True,0,False,True,True,False,True,True,True,7,7,8,,0,,,1,,,,0,,,,,images/1 (269).jpg,Dn+1,Dn,,17,17,0,,thisis_cool,,,initialTest_response,5,5,9,0,16945,0.29,BdaLX6TM0gyFV9zLSBYM,511,image-keyboard-response,1,1,1,"current target, in next trial",,,,2228
,False,,,2,r,,,,,,T_nontarget,3,,1307,thisis_cool,1 (499).jpg,0.0-11.0-2.0-0.20,1,True,True,0,,True,True,False,False,False,False,7,7,0,6,0,,,1,,,,,,,,,images/1 (499).jpg,A,A,,21,21,0,,thisis_cool,,,initial_study,0,0,0,299,16585,0.29,BkAdJV1ynguhYXO95rtS,483,image-keyboard-response,1,0,0,"studied only, not in trial",,,,2228
0,False,,,2,r,False,False,,,j,T_target,3,,1307,thisis_cool,1 (915).jpg,0.0-8.0-10.0-0.0,1,True,True,0,False,True,True,False,True,True,False,4,4,False,,0,,,1,,,,0,,,,,images/1 (915).jpg,B,B,,2,2,0,,thisis_cool,,,initialTest_response,1,1,0,211,13299,0.23,BkU62V0OSqlptM3pUOPI,279,image-keyboard-response,1,1,0,"current target, not in next trial",,,,2228
,False,,,2,r,,,,,,T_target,3,,1307,thisis_cool,1 (1286).jpg,0.0-7.0-2.0-0.19,1,True,True,0,,True,True,False,True,True,False,3,3,0,2,0,,,1,,,,,,,,,images/1 (1286).jpg,B,B,,20,20,0,,thisis_cool,,,initial_study,28,28,0,78,11817,0.21,BmQkq7T6w7QYg3mWHpOo,178,image-keyboard-response,1,1,0,"current target, not in next trial",,,,2228
0,,,,2,r,False,,,,j,T_target,3,,1307,thisis_cool,1 (617).jpg,0.0-16.0-1.0-0.21,1,True,,0,True,,True,False,,True,False,,7,0,1,0,,,,,,,0,,,,,images/1 (617).jpg,,B,,,28,0,,thisis_cool,,,finalTest,,2,0,22,21327,0.36,BqMVfFkYlNEBUAfYwQUc,787,image-keyboard-response,,,,"current target, not in next trial",,,,2228
0,,,,2,r,False,,,,j,T_nontarget,3,,1307,thisis_cool,1 (1316).jpg,0.0-24.0-1.0-0.6,1,True,,0,True,,True,False,,False,False,,1,0,9,0,,,,,,,0,,,,,images/1 (1316).jpg,,A,,,10,0,,thisis_cool,,,finalTest,,0,0,403,25795,0.44,BsizfO9qtTz4VSfo8Rhx,1168,image-keyboard-response,,,,"studied only, not in trial",,,,2228
,False,,,2,r,,,,,,T_target,3,,1307,thisis_cool,1 (641).jpg,0.0-12.0-2.0-0.0,1,True,True,0,,True,True,False,True,True,False,8,8,0,5,0,,,1,,,,,,,,,images/1 (641).jpg,B,B,,1,1,0,,thisis_cool,,,initial_study,17,17,0,219,17544,0.30,Bu60HSmIv6GMDcICOxHt,539,image-keyboard-response,1,1,0,"current target, not in next trial",,,,2228
,,,,2,r,,,,,,,3,,1307,thisis_cool,,0.0-11.0-4.0-0.0,1,,,0,,,,,,,,,,,,,,,,,,,,,,,,"<div style=""font-size:60px;"">+</div>",,,,,,,,thisis_cool,,,fixation,,,,,16716,0.29,BxwPe4WH8o4z9ftSrvcT,494,html-keyboard-response,,,,,,,,2228
,True,,,2,r,,,,,,T_target,3,,1307,thisis_cool,1 (957).jpg,0.0-10.0-2.0-0.12,1,False,True,0,,True,True,False,True,True,True,6,6,7,,0,,,1,,,,,,,,,images/1 (957).jpg,Dn+1,Dn,,13,13,0,,thisis_cool,,,initial_study,14,14,1,0,15323,0.26,C4kOHz3QVofkNZ1rxftM,399,image-keyboard-response,1,1,1,"current target, in next trial",,,,2228
,False,,,2,r,,,,,,T_nontarget,3,,1307,thisis_cool,1 (1159).jpg,0.0-12.0-2.0-0.19,1,False,True,0,,True,True,False,False,False,False,8,8,0,,0,,,1,,,,,,,,,images/1 (1159).jpg,A,A,,20,20,0,,thisis_cool,,,initial_study,0,0,0,0,17759,0.31,CDw9Jeg6R8TJRT16HW2h,558,image-keyboard-response,1,0,0,"studied only, not in trial",,,,2228
,,,,2,r,,,,,,,3,,1307,thisis_cool,,0.0-13.0-9.0-0.0,1,,,0,,,,,,,,,,,,,,,,,,,,,,,,"<div style=""font-size:60px;"">+</div>",,,,,,,,thisis_cool,,,fixation,,,,,19208,0.33,CGaPfuHNzCRvH8P7aqQM,658,html-keyboard-response,,,,,,,,2228
0,False,,,2,r,False,False,,,j,T_target,3,,1307,thisis_cool,1 (1560).jpg,0.0-13.0-10.0-0.5,1,True,True,0,False,True,True,False,True,True,False,9,9,False,,0,,,1,,,,0,,,,,images/1 (1560).jpg,B,B,,18,18,0,,thisis_cool,,,initialTest_response,6,6,0,46,19328,0.33,CJhdHoW9W8se2ttidPyk,664,image-keyboard-response,1,1,0,"current target, not in next trial",,,,2228
,,,,2,r,,,,,,,3,,1307,thisis_cool,,0.0-12.0-5.0-0.2,1,,,0,,,,,,,,8,,,,,,,,,3,,,,,,,6,,,6,,,,,thisis_cool,,53,digitPresentation,,,,,17925,0.31,CLd3fpq8gc6VJPCk4kWV,573,html-keyboard-response,,,,,,,,2228
,,,,2,r,,,,,,,3,,1307,thisis_cool,,0.0-11.0-9.0-0.0,1,,,0,,,,,,,,,,,,,,,,,,,,,,,,"<div style=""font-size:60px;"">+</div>",,,,,,,,thisis_cool,,,fixation,,,,,16846,0.29,CLk1RpjkXpVAgV4KoJuc,506,html-keyboard-response,,,,,,,,2228
,False,,,2,r,,,,,,T_nontarget,3,,1307,thisis_cool,1 (2081).jpg,0.0-8.0-2.0-0.8,1,True,True,0,,True,True,False,False,False,False,4,4,0,3,0,,,1,,,,,,,,,images/1 (2081).jpg,A,A,,9,9,0,,thisis_cool,,,initial_study,0,0,0,150,12883,0.22,CMLneJLM6ftlNY76CEc3,243,image-keyboard-response,1,0,0,"studied only, not in trial",,,,2228
0,False,,,2,r,False,False,,,j,T_target,3,,1307,thisis_cool,1 (2167).jpg,0.0-8.0-10.0-0.10,1,False,True,0,False,True,True,False,True,True,False,4,4,False,,0,,,1,,,,0,,,,,images/1 (2167).jpg,B,B,,26,26,0,,thisis_cool,,,initialTest_response,11,11,0,0,13522,0.23,CNcujN7SvEl5bFZzleE6,289,image-keyboard-response,1,1,0,"current target, not in next trial",,,,2228
0,,,,2,r,False,,False,,j,T_nontarget,3,,1307,thisis_cool,1 (2260).jpg,0.0-16.0-1.0-0.51,1,True,,0,True,,True,False,,False,True,,2,3,1,0,,,,,,,0,,,,,images/1 (2260).jpg,,Cn,,,9,0,,thisis_cool,,,finalTest,,0,4,52,21673,0.37,CODHTumhm7Xvrdvmxj4U,817,image-keyboard-response,,,,"studied only, in next trial",,,,2228
0,True,,,2,r,False,,False,,f,T_foil,3,,1307,thisis_cool,1 (1824).jpg,0.0-11.0-10.0-0.17,1,False,False,0,False,False,True,False,True,False,True,7,6,7,,0,,,2,,,,0,,,,,images/1 (1824).jpg,Cn,Cn,,0,25,0,,thisis_cool,,,initialTest_response,18,0,18,0,17230,0.30,CQh5cKiz4zIE5FMuM2gn,524,image-keyboard-response,1,0,1,"studied only, in next trial, from last trial",,,,2228
0,True,,,2,r,False,False,,,f,T_foil,3,,1307,thisis_cool,1 (777).jpg,0.0-9.0-10.0-0.18,1,True,True,0,False,False,False,False,True,True,True,5,5,6,6,0,,,1,,,,0,,,,,images/1 (777).jpg,Fnn+1,Fnn,,0,0,0,,thisis_cool,,,initialTest_response,19,19,17,263,14898,0.26,CUIqOM4AXs0kMz34JRxj,373,image-keyboard-response,0,1,1,"tested only, in next trial",,,,2228
,False,,,2,r,,,,,,T_target,3,,1307,thisis_cool,1 (419).jpg,0.0-13.0-2.0-0.15,1,True,True,0,,True,True,False,True,True,False,9,9,0,9,0,,,1,,,,,,,,,images/1 (419).jpg,B,B,,16,16,0,,thisis_cool,,,initial_study,19,19,0,416,18888,0.32,CWXDNlrC4QXZGR9j8ep1,630,image-keyboard-response,1,1,0,"current target, not in next trial",,,,2228
0,True,,,2,r,False,False,False,,f,T_foil,3,,1307,thisis_cool,1 (2327).jpg,0.0-9.0-10.0-0.2,1,False,False,0,False,False,True,False,True,True,True,5,4,5,,0,,,2,,,,0,,,,,images/1 (2327).jpg,Dn,Dn,,0,4,0,,thisis_cool,,,initialTest_response,3,4,3,0,14530,0.25,CWf7vQLspqxjlbxkCZy5,357,image-keyboard-response,1,1,1,"current target, in next trial, from last trial",,,,2228
0,,,,2,r,False,,,,f,F,3,,1307,thisis_cool,1 (1500).jpg,0.0-18.0-1.0-0.36,1,True,,0,False,,False,False,,False,False,,0,0,3,8,,,1,,,,0,,,,,images/1 (1500).jpg,,FF,,,0,0,,thisis_cool,,,finalTest,,0,0,145,22762,0.39,CXp4hKzmaNW88FIJp5JP,910,image-keyboard-response,,,,final Foil,,,,2228
0,,,,2,r,False,,,,f,F,3,,1307,thisis_cool,1 (2348).jpg,0.0-17.0-1.0-0.44,1,True,,0,False,,False,False,,False,False,,0,0,2,9,,,1,,,,0,,,,,images/1 (2348).jpg,,FF,,,0,0,,thisis_cool,,,finalTest,,0,0,105,22290,0.38,CbO2VgVOuuvHWus7N9Xa,870,image-keyboard-response,,,,final Foil,,,,2228
0,,,,2,r,False,,,,j,T_nontarget,3,,1307,thisis_cool,1 (2214).jpg,0.0-20.0-1.0-0.24,1,True,,0,True,,True,False,,False,False,,10,0,5,0,,,,,,,0,,,,,images/1 (2214).jpg,,A,,,3,0,,thisis_cool,,,finalTest,,0,0,229,23748,0.40,CbUvlp6NHkvNvMFCSOu5,994,image-keyboard-response,,,,"studied only, not in trial",,,,2228
0,True,,,2,r,False,False,False,,f,T_foil,3,,1307,thisis_cool,1 (784).jpg,0.0-14.0-10.0-0.4,1,True,False,0,False,False,False,False,True,False,False,10,9,0,,0,,,2,,,,0,,,,,images/1 (784).jpg,Fnn,Fnn,,0,0,0,,thisis_cool,,,initialTest_response,5,0,0,205,20495,0.35,CeMIE6FLBw246K0rFEEc,739,image-keyboard-response,0,1,1,"tested only, in next trial, from last trial",,,,2228
,False,,,2,r,,,,,,T_nontarget,3,,1728,thisis_cool,1 (192).jpg,0.0-5.0-2.0-0.11,0,True,True,0,,True,True,False,False,False,False,1,1,0,6,0,,,1,,,,,,,,,images/1 (192).jpg,A,A,,12,12,0,,thisis_cool,,,initial_study,0,0,0,257,8234,0.15,Cf3Gb2DgMSSx6slhmspH,18,image-keyboard-response,1,0,0,"studied only, not in trial",,,,3072
