parent_document_id,document_id,HaveSeenImages,accumulated_accuracy,all_accumulated_accuracy,anRepeatedItem,browser,browser_version,codeversion,condition,correct,correct_appear1,correct_appear2,correct_response,correct_response_key,current_assignmentTypesWithinList,designversion,fullscreen,height,id,id_picName,internal_node_id,is_changedfullscreen,is_chosenFinal,is_currentObjAppear1,is_finished,is_old,is_studied_appear0_initial,is_studied_appear1_initial,is_studied_appear2_initial,is_tested_appear0_initial,is_tested_appear1_initial,is_tested_appear2_initial,listNum_appear0_initial,listNum_appear1_initial,listNum_appear2_initial,listNum_infinalOrder,listNum_pickedFrom,microphone,mobile,num_CurrObjAppear,os,presPos_digit,question_order,recognition_correct,response,responsesum,rt,stimulus,stimulusConditionName_nPlusOneTrial,stimulusConditions,stimulus_id,studyPos_appear0_initial,studyPos_appear1_initial,studyPos_appear2_initial,subject_id,success,sum_currList,task,testPos_appear0_initial,testPos_appear1_initial,testPos_appear2_initial,testPos_final,time_elapsed,timepassed_mins,trial_index,trial_type,type_code_studiedCurr,type_code_testiedCurr,type_code_testiedNext,type_comment,vsync_rate,webaudio,webcam,width
0100,-OPREevKeKpTgxbvAhBU,,,,False,,,2.3,r,,,,,,T_target,3,,1307,0100,1 (2049).jpg,0.0-5.0-2.0-0.29,1,True,True,0,,True,True,False,True,True,False,1,1,0,9,0,,,1,,,,,,,,images/1 (2049).jpg,B,B,,30,30,0,0100,,,initial_study,10,10,0,439,10715,0.20,36,image-keyboard-response,1,1,0,"current target, not in next trial",,,,2285
0100,-OPREf0_vtWtC8K0utn5,,0,,False,,,2.3,r,False,False,,,f,T_foil,3,,1307,0100,1 (73).jpg,0.0-5.0-10.0-0.29,1,True,True,0,False,False,False,False,True,True,False,1,1,False,2,0,,,1,,,,0,,,,images/1 (73).jpg,Fn+1,Fn,,0,0,0,0100,,,initialTest_response,30,30,0,74,11851,0.21,80,image-keyboard-response,0,1,0,"tested only, not in next trial",,,,2285
0100,-OPREf23FUC3DZYZ5Xy1,,0,,,,,2.3,r,False,,,,j,T_target,3,,1307,0100,1 (1273).jpg,0.0-17.0-1.0-0.30,1,True,,0,True,,True,False,,True,False,,9,0,2,0,,,,,,,0,,,,images/1 (1273).jpg,,B,,,15,0,0100,,,finalTest,,14,0,91,24199,0.42,856,image-keyboard-response,,,,"current target, not in next trial",,,,1775
0100,-OPREf5DnQ-PP7y2ouQw,,,,,,,2.3,r,,,,,,,3,,1307,0100,,0.0-5.0-5.0-0.0,1,,,0,,,,,,,,1,,,,,,,,,1,,,,,,6,,,6,,,,0100,,53,digitPresentation,,,,,10805,0.20,39,html-keyboard-response,,,,,,,,2285
0100,-OPREf6srpPs6a6j3dLz,,,,,,,2.3,r,,,,,,,3,,1306,0100,,0.0-3.0,0,,,0,,,,,,,,,,,,,,,,,,[0],,"{'consent': ""I have read and understand this information and agree to join this study. <p style='text-align: left'> Clicking to confirm, then press 'enter' to continue.</p>""}",,4499,,,,,,,,0100,,,,,,,,7528,0.14,3,survey-multi-choice,,,,,,,,1774
0100,-OPREfBUFql1cZhJgqTI,,,,,chrome,135.0.0,2.3,r,,,,,,,3,True,1306,0100,,0.0-2.0,0,,,0,,,,,,,,,,,,,False,False,,Linux,,,,,,,,,,,,,,0100,,,,,,,,3024,0.07,2,browser-check,,,,,61.32,True,False,1774
0100,-OPREfCxnm-GU2AOvDQ8,,,,,,,2.3,r,,,,,,,3,,1307,0100,,0.0-8.0-0.0-0.0,1,,,0,,,,,,,,,,,,,,,,,,,,,,,"
    <p style='text-align: justify;color: black;background: white;font: caption-;''>
        Press the 'enter' key to see the next list of pictures. </p>
    ",,,,,,,0100,,,,,,,,14329,0.26,233,html-keyboard-response,,,,,,,,1775
0100,-OPREfH29w8qs8hWBFa6,,0,,False,,,2.3,r,False,False,,,j,T_target,3,,1307,0100,1 (68).jpg,0.0-7.0-10.0-0.29,1,True,True,0,False,True,True,False,True,True,False,3,3,False,,0,,,1,,,,0,,,,images/1 (68).jpg,B,B,,20,20,0,0100,,,initialTest_response,30,30,0,278,14307,0.26,232,image-keyboard-response,1,1,0,"current target, not in next trial",,,,1775
0100,-OPREfH6ufm4s7w23Wtx,,,,,,,2.3,r,,,,,,,3,,1728,0100,,0.0-5.0-0.0-0.0-0.0,0,,,0,,,,,,,,,,,,,,,,,,,,,,,"

    <p style='text-align: justify;color: black;background: white;font: caption-;'>1. A list of 30 pictures will appear on the screen one at a time. Study the pictures as they appear.</p>
    <p style='text-align: justify;color: black;background: white;font: caption-;'>2. After a brief blank period, you will see a series of numbers. Add these numbers as they appear. When prompted with ""TYPE THE SUM,"" use the number keys to enter your answer.</p>
     
    <p style='text-align: justify; color: black; background: white; font: caption-;'> 
    3. Next, you will see a series of test pictures from the list you just studied. For each picture, press the <strong>""J""</strong> key if you recognize it as one you have seen in the current list. Press the <strong>""F""</strong> key if you don’t recognize it as one from the current list. <br>   
      <strong>Accumulated accuracy will be displayed throughout the experiment. Please pay attention and try to get an averaged performance higher than 60% (chance level is 50%).</strong></p><br>
    <p style='text-align: justify; color: black; background: white; font: caption-;'>
    You will begin with a practice list, followed by nine formal test lists. <strong>For each test, respond based only on the list you JUST studied. If a picture appeared in a previous list but not the current one, press the <strong>""F""</strong> key.</strong>
    </p>

<p style='text-align: justify;color: black;background: white;font: caption-;'>Do not worry if you are unsure about some test pictures. This is normal, but please make your best guess.</p>
    <p style='text-align: justify;color: black;background: white;font: caption-;'>Press the ""Enter"" key to start the practice list.</p>
      
      ",,,,,,,0100,,,instructions_practice,,,,,9911,0.18,5,html-keyboard-response,,,,,,,,2562
0100,-OPREfIcxORv89rPcY6e,,,,False,,,2.3,r,,,,,,T_nontarget,3,,1307,0100,1 (996).jpg,0.0-6.0-2.0-0.3,1,True,True,0,,True,True,False,False,False,False,2,2,0,2,0,,,1,,,,,,,,images/1 (996).jpg,A,A,,4,4,0,0100,,,initial_study,0,0,0,85,11925,0.22,86,image-keyboard-response,1,0,0,"studied only, not in trial",,,,2285
0100,-OPREfIdLnNLWc2yzcRT,,,,False,,,2.3,r,,,,,,T_target,3,,1307,0100,1 (1091).jpg,0.0-6.0-2.0-0.23,1,True,True,0,,True,True,False,True,True,False,2,2,0,7,0,,,1,,,,,,,,images/1 (1091).jpg,B,B,,24,24,0,0100,,,initial_study,24,24,0,317,12141,0.22,106,image-keyboard-response,1,1,0,"current target, not in next trial",,,,1775
0100,-OPREfKBRprfNiXRG6Lg,,0,,,,,2.3,r,False,,,,f,F,3,,1307,0100,1 (1979).jpg,0.0-17.0-1.0-0.38,1,True,,0,False,,False,False,,False,False,,0,0,2,0,,,1,,,,0,,,,images/1 (1979).jpg,,FF,,,0,0,0100,,,finalTest,,0,0,99,24295,0.42,864,image-keyboard-response,,,,final Foil,,,,1775
0100,-OPREfKDySpDshGTfKu0,,0,,False,,,2.3,r,False,False,,,j,T_target,3,,1307,0100,1 (1879).jpg,0.0-6.0-10.0-0.6,1,True,True,0,False,True,True,False,True,True,False,2,2,False,,0,,,1,,,,0,,,,images/1 (1879).jpg,B,B,,13,13,0,0100,,,initialTest_response,7,7,0,213,12526,0.23,133,image-keyboard-response,1,1,0,"current target, not in next trial",,,,1775
0100,-OPREfKFikvaw8OXi-eZ,,,,False,,,2.3,r,,,,,,T_target,3,,1307,0100,1 (576).jpg,0.0-6.0-2.0-0.7,1,True,True,0,,True,True,False,True,True,False,2,2,0,8,0,,,1,,,,,,,,images/1 (576).jpg,B,B,,8,8,0,0100,,,initial_study,16,16,0,355,11967,0.22,90,image-keyboard-response,1,1,0,"current target, not in next trial",,,,1775
0100,-OPREfLjlqlwsYuygR4K,,,,,,,2.3,r,,,,,,,3,,1307,0100,,0.0-5.0-5.0-0.5,1,,,0,,,,,,,,1,,,,,,,,,6,,,,,,4,,,4,,,,0100,,53,digitPresentation,,,,,10904,0.20,44,html-keyboard-response,,,,,,,,2285
0100,-OPREfLobgO2xW88c3u_,,0,,False,,,2.3,r,False,False,,,j,T_target,3,,1307,0100,1 (2187).jpg,0.0-7.0-10.0-0.8,1,False,True,0,False,True,True,False,True,True,False,3,3,False,,0,,,1,,,,0,,,,images/1 (2187).jpg,B,B,,19,19,0,0100,,,initialTest_response,9,9,0,0,13831,0.25,211,image-keyboard-response,1,1,0,"current target, not in next trial",,,,1775
0100,-OPREfLtcnXziM29lD8i,,0,,,,,2.3,r,False,,,,j,T_nontarget,3,,1307,0100,1 (2186).jpg,0.0-19.0-1.0-0.35,1,True,,0,True,,True,False,,False,False,,5,0,4,0,,,,,,,0,,,,images/1 (2186).jpg,,A,,,1,0,0100,,,finalTest,,0,0,192,25481,0.44,957,image-keyboard-response,,,,"studied only, not in trial",,,,1775
0100,-OPREfNQdjB6BaPgp2DK,,,,,,,2.3,r,,,,,,,3,,1307,0100,,0.0-5.0-5.0-0.4,1,,,0,,,,,,,,1,,,,,,,,,5,,,,,,9,,,9,,,,0100,,53,digitPresentation,,,,,10887,0.20,43,html-keyboard-response,,,,,,,,2285
0100,-OPREfOqcm8_-B4XMFPm,,,,False,,,2.3,r,,,,,,T_nontarget,3,,1728,0100,1 (192).jpg,0.0-5.0-2.0-0.4,0,False,True,0,,True,True,False,False,False,False,1,1,0,,0,,,1,,,,,,,,images/1 (192).jpg,A,A,,5,5,0,0100,,,initial_study,0,0,0,0,9994,0.18,11,image-keyboard-response,1,0,0,"studied only, not in trial",,,,2562
0100,-OPREfOu5ng_-6ct3aZv,,,,False,,,2.3,r,,,,,,T_target,3,,1307,0100,1 (1956).jpg,0.0-8.0-2.0-0.27,1,True,True,0,,True,True,False,True,True,False,4,4,0,3,0,,,1,,,,,,,,images/1 (1956).jpg,B,B,,28,28,0,0100,,,initial_study,16,16,0,123,14700,0.26,262,image-keyboard-response,1,1,0,"current target, not in next trial",,,,1775
0100,-OPREfOwvBRQAUvr5zMG,,,,False,,,2.3,r,,,,,,T_nontarget,3,,1307,0100,1 (2289).jpg,0.0-6.0-2.0-0.19,1,True,True,0,,True,True,False,False,False,False,2,2,0,9,0,,,1,,,,,,,,images/1 (2289).jpg,A,A,,20,20,0,0100,,,initial_study,0,0,0,404,12097,0.22,102,image-keyboard-response,1,0,0,"studied only, not in trial",,,,1775
0100,-OPREfQRR-8y1jxXcDjz,,,,True,,,2.3,r,,,,,,T_nontarget,3,,1307,0100,1 (1049).jpg,0.0-6.0-2.0-0.21,1,True,True,0,,True,True,False,False,False,True,2,2,3,2,0,,,1,,,,,,,,images/1 (1049).jpg,Cn+1,Cn,,22,22,0,0100,,,initial_study,0,0,14,65,12118,0.22,104,image-keyboard-response,1,0,1,"studied only, in next trial",,,,1775
0100,-OPREfQS0krOkAF_fBD9,,0,,,,,2.3,r,False,,,,j,T_target,3,,1307,0100,1 (487).jpg,0.0-17.0-1.0-0.33,1,True,,0,True,,True,False,,True,False,,2,0,2,0,,,,,,,0,,,,images/1 (487).jpg,,B,,,5,0,0100,,,finalTest,,1,0,94,24236,0.42,859,image-keyboard-response,,,,"current target, not in next trial",,,,1775
0100,-OPREfQWontk-HcFPWSU,,0,,True,,,2.3,r,False,False,False,,f,T_foil,3,,1307,0100,1 (1827).jpg,0.0-6.0-10.0-0.5,1,True,False,0,False,False,False,False,True,False,True,2,1,2,,0,,,2,,,,0,,,,images/1 (1827).jpg,Fnn,Fnn,,0,0,0,0100,,,initialTest_response,6,0,6,244,12505,0.23,132,image-keyboard-response,0,1,1,"tested only, in next trial, from last trial",,,,1775
0100,-OPREfS-zjwFmyA0VzRA,,0,,True,,,2.3,r,False,,False,,f,T_foil,3,,1307,0100,1 (1394).jpg,0.0-6.0-10.0-0.1,1,True,False,0,False,False,True,False,True,False,True,2,1,2,,0,,,2,,,,0,,,,images/1 (1394).jpg,Cn,Cn,,0,26,0,0100,,,initialTest_response,2,0,2,128,12421,0.22,128,image-keyboard-response,1,0,1,"studied only, in next trial, from last trial",,,,1775
0100,-OPREfS16OsEHRlAmceg,,,,,,,2.3,r,,,,,,,3,,1307,0100,,0.0-5.0-8.0-0.0,1,,,0,,,,,,,,,,,,,,,,,,,,,,,Now judge if you have seen this pictures from the list you JUST studied before the digits,,,,,,,0100,,,prompt,,,,,11004,0.20,49,html-keyboard-response,,,,,,,,2285
0100,-OPREfS2TizBkGuSu3_h,,0,,,,,2.3,r,False,,,,j,T_nontarget,3,,1307,0100,1 (523).jpg,0.0-17.0-1.0-0.39,1,True,,0,True,,True,False,,False,False,,5,0,2,0,,,,,,,0,,,,images/1 (523).jpg,,A,,,11,0,0100,,,finalTest,,0,0,100,24307,0.42,865,image-keyboard-response,,,,"studied only, not in trial",,,,1775
0100,-OPREfS5RrAn6DAq8GUj,,,,True,,,2.3,r,,,,,,T_nontarget,3,,1307,0100,1 (445).jpg,0.0-6.0-2.0-0.10,1,True,True,0,,True,True,False,False,False,True,2,2,3,4,0,,,1,,,,,,,,images/1 (445).jpg,Cn+1,Cn,,11,11,0,0100,,,initial_study,0,0,17,172,12000,0.22,93,image-keyboard-response,1,0,1,"studied only, in next trial",,,,1775
0100,-OPREfS78dAe_2XPTuqX,,0,,,,,2.3,r,False,,,,j,T_nontarget,3,,1307,0100,1 (2215).jpg,0.0-18.0-1.0-0.32,1,True,,0,True,,True,False,,False,False,,5,0,3,0,,,,,,,0,,,,images/1 (2215).jpg,,A,,,19,0,0100,,,finalTest,,0,0,141,24846,0.43,906,image-keyboard-response,,,,"studied only, not in trial",,,,1775
0100,-OPREfTco7NV6P6K_-ui,,0,,,,,2.3,r,False,,,,f,F,3,,1307,0100,1 (552).jpg,0.0-18.0-1.0-0.30,1,True,,0,False,,False,False,,False,False,,0,0,3,3,,,1,,,,0,,,,images/1 (552).jpg,,FF,,,0,0,0100,,,finalTest,,0,0,139,24821,0.43,904,image-keyboard-response,,,,final Foil,,,,1775
0100,-OPREfTeVbdSaTOavjw5,,0,,,,,2.3,r,False,,,,f,F,3,,1307,0100,1 (1420).jpg,0.0-18.0-1.0-0.29,1,True,,0,False,,False,False,,False,False,,0,0,3,2,,,1,,,,0,,,,images/1 (1420).jpg,,FF,,,0,0,0100,,,finalTest,,0,0,138,24807,0.43,903,image-keyboard-response,,,,final Foil,,,,1775
0100,-OPREfTfDHBn7H_EG6Fy,,0,,,,,2.3,r,False,,,,f,F,3,,1307,0100,1 (2038).jpg,0.0-18.0-1.0-0.31,1,True,,0,False,,False,False,,False,False,,0,0,3,5,,,1,,,,0,,,,images/1 (2038).jpg,,FF,,,0,0,0100,,,finalTest,,0,0,140,24834,0.43,905,image-keyboard-response,,,,final Foil,,,,1775
0100,-OPREfThPZauw4v3HuYg,,0,,,,,2.3,r,False,,,,f,F,3,,1307,0100,1 (1203).jpg,0.0-18.0-1.0-0.34,1,True,,0,False,,False,False,,False,False,,0,0,3,10,,,1,,,,0,,,,images/1 (1203).jpg,,FF,,,0,0,0100,,,finalTest,,0,0,143,24871,0.43,908,image-keyboard-response,,,,final Foil,,,,1775
0100,-OPREfV65AZeEHt4exQC,,0,,,,,2.3,r,False,,,,f,F,3,,1307,0100,1 (91).jpg,0.0-18.0-1.0-0.35,1,True,,0,False,,False,False,,False,False,,0,0,3,2,,,1,,,,0,,,,images/1 (91).jpg,,FF,,,0,0,0100,,,finalTest,,0,0,144,24884,0.43,909,image-keyboard-response,,,,final Foil,,,,1775
0100,-OPREfV8g28RgWb4SDFp,,0,,True,,,2.3,r,False,,False,,f,T_foil,3,,1307,0100,1 (1111).jpg,0.0-6.0-10.0-0.20,1,False,False,0,False,False,True,False,True,False,True,2,1,2,,0,,,2,,,,0,,,,images/1 (1111).jpg,Cn,Cn,,0,9,0,0100,,,initialTest_response,21,0,21,0,12839,0.23,147,image-keyboard-response,1,0,1,"studied only, in next trial, from last trial",,,,1775
0100,-OPREfVAQe_kmCEaglhD,,0,,False,,,2.3,r,False,False,,,f,T_foil,3,,1307,0100,1 (2347).jpg,0.0-5.0-10.0-0.3,1,False,True,0,False,False,False,False,True,True,False,1,1,False,,0,,,1,,,,0,,,,images/1 (2347).jpg,Fn+1,Fn,,0,0,0,0100,,,initialTest_response,4,4,0,0,11205,0.20,54,image-keyboard-response,0,1,0,"tested only, not in next trial",,,,2285
0100,-OPREfVBk-NcpS3xK18Q,,0,,True,,,2.3,r,False,False,False,,f,T_foil,3,,1307,0100,1 (403).jpg,0.0-6.0-10.0-0.21,1,True,False,0,False,False,True,False,True,True,True,2,1,2,,0,,,2,,,,0,,,,images/1 (403).jpg,Dn,Dn,,0,21,0,0100,,,initialTest_response,22,21,22,277,12864,0.23,148,image-keyboard-response,1,1,1,"current target, in next trial, from last trial",,,,1775
0100,-OPREfVCvajxlzoJoHwX,,0,,,,,2.3,r,False,,,,j,T_foil,3,,1307,0100,1 (1472).jpg,0.0-18.0-1.0-0.33,1,True,,0,True,,False,False,,True,False,,1,False,3,1,,,,,,,0,,,,images/1 (1472).jpg,,Fn,,,0,0,0100,,,finalTest,,25,0,142,24859,0.43,907,image-keyboard-response,,,,"tested only, not in next trial",,,,1775
0100,-OPREfVFXgT_-ZpUoiyq,,,,False,,,2.3,r,,,,,,T_target,3,,1307,0100,1 (1171).jpg,0.0-14.0-2.0-0.9,1,False,True,0,,True,True,False,True,True,False,10,10,0,,0,,,1,,,,,,,,images/1 (1171).jpg,B,B,,10,10,0,0100,,,initial_study,26,26,0,0,21922,0.38,700,image-keyboard-response,1,1,0,"current target, not in next trial",,,,1775
0100,-OPREfVGGeNzTWxc8dGB,,0,,,,,2.3,r,False,,,,f,F,3,,1307,0100,1 (1663).jpg,0.0-20.0-1.0-0.26,1,True,,0,False,,False,False,,False,False,,0,0,5,9,,,1,,,,0,,,,images/1 (1663).jpg,,FF,,,0,0,0100,,,finalTest,,0,0,231,25953,0.45,996,image-keyboard-response,,,,final Foil,,,,1775
0100,-OPREfWflif0KodJCyIw,,0,,False,,,2.3,r,False,False,,,f,T_foil,3,,1307,0100,1 (1702).jpg,0.0-6.0-10.0-0.24,1,False,True,0,False,False,False,False,True,True,False,2,2,False,,0,,,1,,,,0,,,,images/1 (1702).jpg,Fn+1,Fn,,0,0,0,0100,,,initialTest_response,25,25,0,0,12930,0.23,151,image-keyboard-response,0,1,0,"tested only, not in next trial",,,,1775
0100,-OPREfWi1dyfy3kxRdc5,,,,False,,,2.3,r,,,,,,T_nontarget,3,,1728,0100,1 (277).jpg,0.0-5.0-2.0-0.21,0,False,True,0,,True,True,False,False,False,False,1,1,0,,0,,,1,,,,,,,,images/1 (277).jpg,A,A,,22,22,0,0100,,,initial_study,0,0,0,0,10207,0.19,28,image-keyboard-response,1,0,0,"studied only, not in trial",,,,2562
0100,-OPREfYPVXKs6gIGnuwC,,0,,,,,2.3,r,False,,,,j,T_foil,3,,1307,0100,1 (1701).jpg,0.0-18.0-1.0-0.47,1,True,,0,True,,False,False,,True,False,,5,False,3,5,,,,,,,0,,,,images/1 (1701).jpg,,Fn,,,0,0,0100,,,finalTest,,16,0,156,25037,0.43,921,image-keyboard-response,,,,"tested only, not in next trial",,,,1775
0100,-OPREfYQJRf5dOKhknq4,,,,False,,,2.3,r,,,,,,T_target,3,,1728,0100,1 (1607).jpg,0.0-5.0-2.0-0.17,0,True,True,0,,True,True,False,True,True,False,1,1,0,9,0,,,1,,,,,,,,images/1 (1607).jpg,B,B,,18,18,0,0100,,,initial_study,1,1,0,438,10157,0.19,24,image-keyboard-response,1,1,0,"current target, not in next trial",,,,2562
0100,-OPREfZrPs646XNpVdtq,,0,,,,,2.3,r,False,,,,j,T_target,3,,1307,0100,1 (607).jpg,0.0-18.0-1.0-0.46,1,True,,0,True,,True,False,,True,False,,6,0,3,0,,,,,,,0,,,,images/1 (607).jpg,,B,,,8,0,0100,,,finalTest,,25,0,155,25024,0.43,920,image-keyboard-response,,,,"current target, not in next trial",,,,1775
0100,-OPREfZtNWpI71q7CWQ1,,,,False,,,2.3,r,,,,,,T_nontarget,3,,1307,0100,1 (8).jpg,0.0-6.0-2.0-0.17,1,True,True,0,,True,True,False,False,False,False,2,2,0,4,0,,,1,,,,,,,,images/1 (8).jpg,A,A,,18,18,0,0100,,,initial_study,0,0,0,177,12075,0.22,100,image-keyboard-response,1,0,0,"studied only, not in trial",,,,1775
0100,-OPREfZuGVjZagX56U5P,,,,False,,,2.3,r,,,,,,T_target,3,,1307,0100,1 (2379).jpg,0.0-6.0-2.0-0.16,1,False,True,0,,True,True,False,True,True,False,2,2,0,,0,,,1,,,,,,,,images/1 (2379).jpg,B,B,,17,17,0,0100,,,initial_study,30,30,0,0,12065,0.22,99,image-keyboard-response,1,1,0,"current target, not in next trial",,,,1775
0100,-OPREfZwa_oZAMQy8nFJ,,,,,,,2.3,r,,,,,,,3,,1307,0100,,0.0-7.0-5.0-0.1,1,,,0,,,,,,,,3,,,,,,,,,2,,,,,,6,,,6,,,,0100,,56,digitPresentation,,,,,13523,0.24,192,html-keyboard-response,,,,,,,,1775
0100,-OPREfZynOHKdqoNyq_0,,,,False,,,2.3,r,,,,,,T_target,3,,1307,0100,1 (1482).jpg,0.0-6.0-2.0-0.13,1,False,True,0,,True,True,False,True,True,False,2,2,0,,0,,,1,,,,,,,,images/1 (1482).jpg,B,B,,14,14,0,0100,,,initial_study,28,28,0,0,12032,0.22,96,image-keyboard-response,1,1,0,"current target, not in next trial",,,,1775
0100,-OPREf_-mkWv6DCOMDmD,,0,,False,,,2.3,r,False,False,,,j,T_target,3,,1307,0100,1 (632).jpg,0.0-7.0-10.0-0.7,1,True,True,0,False,True,True,False,True,True,False,3,3,False,,0,,,1,,,,0,,,,images/1 (632).jpg,B,B,,4,4,0,0100,,,initialTest_response,8,8,0,12,13808,0.25,210,image-keyboard-response,1,1,0,"current target, not in next trial",,,,1775
0100,-OPREf_1rishDgX8c2Np,,,,True,,,2.3,r,,,,,,T_target,3,,1728,0100,1 (171).jpg,0.0-5.0-2.0-0.9,0,True,True,0,,True,True,False,True,True,True,1,1,2,4,0,,,1,,,,,,,,images/1 (171).jpg,Dn+1,Dn,,10,10,0,0100,,,initial_study,28,28,14,158,10058,0.18,16,image-keyboard-response,1,1,1,"current target, in next trial",,,,2562
0100,-OPREfaK9XnGsJzGuhVu,,0,,False,,,2.3,r,False,False,,,f,T_foil,3,,1307,0100,1 (1552).jpg,0.0-5.0-10.0-0.1,1,False,True,0,False,False,False,False,True,True,False,1,1,False,,0,,,1,,,,0,,,,images/1 (1552).jpg,Fn+1,Fn,,0,0,0,0100,,,initialTest_response,2,2,0,0,11112,0.20,52,image-keyboard-response,0,1,0,"tested only, not in next trial",,,,2285
0100,-OPREfaPuRVrRXY8e_fn,,0,,False,,,2.3,r,False,False,,,j,T_target,3,,1307,0100,1 (2379).jpg,0.0-6.0-10.0-0.29,1,False,True,0,False,True,True,False,True,True,False,2,2,False,,0,,,1,,,,0,,,,images/1 (2379).jpg,B,B,,17,17,0,0100,,,initialTest_response,30,30,0,0,13042,0.23,156,image-keyboard-response,1,1,0,"current target, not in next trial",,,,1775
0100,-OPREfbz-abxjzEQ2njD,,0,,,,,2.3,r,False,,,,j,T_foil,3,,1307,0100,1 (82).jpg,0.0-19.0-1.0-0.40,1,True,,0,True,,False,False,,True,False,,6,False,4,6,,,,,,,0,,,,images/1 (82).jpg,,Fn,,,0,0,0100,,,finalTest,,5,0,197,25539,0.44,962,image-keyboard-response,,,,"tested only, not in next trial",,,,1775
0100,-OPREfc-0U-EISpiE1xU,,0,,,,,2.3,r,False,,,,f,F,3,,1307,0100,1 (2394).jpg,0.0-19.0-1.0-0.41,1,True,,0,False,,False,False,,False,False,,0,0,4,2,,,1,,,,0,,,,images/1 (2394).jpg,,FF,,,0,0,0100,,,finalTest,,0,0,198,25550,0.44,963,image-keyboard-response,,,,final Foil,,,,1775
0100,-OPREfcW_SO0u4mqdwss,,0,,False,,,2.3,r,False,False,,,j,T_target,3,,1307,0100,1 (506).jpg,0.0-8.0-10.0-0.5,1,False,True,0,False,True,True,False,True,True,False,4,4,False,,0,,,1,,,,0,,,,images/1 (506).jpg,B,B,,1,1,0,0100,,,initialTest_response,6,6,0,0,15019,0.27,284,image-keyboard-response,1,1,0,"current target, not in next trial",,,,1775
0100,-OPREfcYg8SQcvDVEJi7,,0,,,,,2.3,r,False,,,,j,T_nontarget,3,,1307,0100,1 (281).jpg,0.0-19.0-1.0-0.45,1,True,,0,True,,True,False,,False,False,,2,0,4,0,,,,,,,0,,,,images/1 (281).jpg,,A,,,10,0,0100,,,finalTest,,0,0,202,25602,0.44,967,image-keyboard-response,,,,"studied only, not in trial",,,,1775
0100,-OPREfdUoc81AjJmvClH,,0,,False,,,2.3,r,False,False,,,f,T_foil,3,,1307,0100,1 (865).jpg,0.0-14.0-10.0-0.7,1,False,True,0,False,False,False,False,True,True,False,10,10,0,,0,,,1,,,,0,,,,images/1 (865).jpg,Fn+1,Fn,,0,0,0,0100,,,initialTest_response,8,8,0,0,22532,0.39,742,image-keyboard-response,0,1,0,"tested only, not in next trial",,,,1775
0100,-OPREfe3K7DZ_Twzz-Lp,,0,,,,,2.3,r,False,,False,,j,T_nontarget,3,,1307,0100,1 (334).jpg,0.0-20.0-1.0-0.11,1,True,,0,True,,True,False,,False,True,,6,7,5,0,,,,,,,0,,,,images/1 (334).jpg,,Cn,,,2,0,0100,,,finalTest,,0,26,216,25774,0.45,981,image-keyboard-response,,,,"studied only, in next trial",,,,1775
0100,-OPREfe5CGtxJUXa2TjK,,,,False,,,2.3,r,,,,,,T_target,3,,1307,0100,1 (429).jpg,0.0-13.0-2.0-0.17,1,False,True,0,,True,True,False,True,True,False,9,9,0,,0,,,1,,,,,,,,images/1 (429).jpg,B,B,,18,18,0,0100,,,initial_study,25,25,0,0,20783,0.36,632,image-keyboard-response,1,1,0,"current target, not in next trial",,,,1775
0100,-OPREfe6tsBF77I9ZNtx,,,,False,,,2.3,r,,,,,,T_nontarget,3,,1307,0100,1 (1982).jpg,0.0-12.0-2.0-0.9,1,True,True,0,,True,True,False,False,False,False,8,8,0,2,0,,,1,,,,,,,,images/1 (1982).jpg,A,A,,10,10,0,0100,,,initial_study,0,0,0,62,19442,0.34,548,image-keyboard-response,1,0,0,"studied only, not in trial",,,,1775
0100,-OPREfe8ISZ_KKTBReln,,,,False,,,2.3,r,,,,,,T_nontarget,3,,1307,0100,1 (1305).jpg,0.0-12.0-2.0-0.5,1,True,True,0,,True,True,False,False,False,False,8,8,0,10,0,,,1,,,,,,,,images/1 (1305).jpg,A,A,,6,6,0,0100,,,initial_study,0,0,0,452,19385,0.34,544,image-keyboard-response,1,0,0,"studied only, not in trial",,,,1775
0100,-OPREff9MrlnvpO6WGGj,,0,,,,,2.3,r,False,,,,f,F,3,,1307,0100,1 (2123).jpg,0.0-19.0-1.0-0.44,1,True,,0,False,,False,False,,False,False,,0,0,4,10,,,1,,,,0,,,,images/1 (2123).jpg,,FF,,,0,0,0100,,,finalTest,,0,0,201,25591,0.44,966,image-keyboard-response,,,,final Foil,,,,1775
0100,-OPREffC9Xb7gAMIb81g,,0,,True,,,2.3,r,False,False,False,,f,T_foil,3,,1307,0100,1 (356).jpg,0.0-8.0-10.0-0.6,1,False,False,0,False,False,False,False,True,False,True,4,3,4,,0,,,2,,,,0,,,,images/1 (356).jpg,Fnn,Fnn,,0,0,0,0100,,,initialTest_response,7,0,7,0,15041,0.27,285,image-keyboard-response,0,1,1,"tested only, in next trial, from last trial",,,,1775
0100,-OPREffEdbgmLMeyQpmx,,,,False,,,2.3,r,,,,,,T_nontarget,3,,1307,0100,1 (1615).jpg,0.0-6.0-2.0-0.22,1,False,True,0,,True,True,False,False,False,False,2,2,0,,0,,,1,,,,,,,,images/1 (1615).jpg,A,A,,23,23,0,0100,,,initial_study,0,0,0,0,12129,0.22,105,image-keyboard-response,1,0,0,"studied only, not in trial",,,,1775
0100,-OPREffFprSdD-y4M7Z6,,0,,False,,,2.3,r,False,False,,,f,T_foil,3,,1307,0100,1 (1812).jpg,0.0-5.0-10.0-0.18,1,True,True,0,False,False,False,False,True,True,False,1,1,False,9,0,,,1,,,,0,,,,images/1 (1812).jpg,Fn+1,Fn,,0,0,0,0100,,,initialTest_response,19,19,0,415,11604,0.21,69,image-keyboard-response,0,1,0,"tested only, not in next trial",,,,2285
0100,-OPREfgb0L4LgNh2_MjW,,0,,,,,2.3,r,False,,,,f,F,3,,1307,0100,1 (307).jpg,0.0-19.0-1.0-0.46,1,True,,0,False,,False,False,,False,False,,0,0,4,10,,,1,,,,0,,,,images/1 (307).jpg,,FF,,,0,0,0100,,,finalTest,,0,0,203,25614,0.44,968,image-keyboard-response,,,,final Foil,,,,1775
0100,-OPREfgcxHnUsQh_dQP7,,0,,,,,2.3,r,False,,,,f,F,3,,1307,0100,1 (1150).jpg,0.0-19.0-1.0-0.42,1,True,,0,False,,False,False,,False,False,,0,0,4,9,,,1,,,,0,,,,images/1 (1150).jpg,,FF,,,0,0,0100,,,finalTest,,0,0,199,25562,0.44,964,image-keyboard-response,,,,final Foil,,,,1775
0100,-OPREfgfkzv-I3j0T4GD,,,,False,,,2.3,r,,,,,,T_target,3,,1307,0100,1 (2338).jpg,0.0-12.0-2.0-0.1,1,False,True,0,,True,True,False,True,True,False,8,8,0,,0,,,1,,,,,,,,images/1 (2338).jpg,B,B,,2,2,0,0100,,,initial_study,30,30,0,0,19337,0.34,540,image-keyboard-response,1,1,0,"current target, not in next trial",,,,1775
0100,-OPREfiBPKMR8pbqVP1b,,0,,,,,2.3,r,False,,,,j,T_nontarget,3,,1307,0100,1 (2329).jpg,0.0-17.0-1.0-0.45,1,True,,0,True,,True,False,,False,False,,3,0,2,0,,,,,,,0,,,,images/1 (2329).jpg,,A,,,2,0,0100,,,finalTest,,0,0,106,24393,0.42,871,image-keyboard-response,,,,"studied only, not in trial",,,,1775
0100,-OPREfjip5zF3sQdzKIr,,,,False,,,2.3,r,,,,,,T_target,3,,1728,0100,1 (2380).jpg,0.0-5.0-2.0-0.6,0,False,True,0,,True,True,False,True,True,False,1,1,0,,0,,,1,,,,,,,,images/1 (2380).jpg,B,B,,7,7,0,0100,,,initial_study,21,21,0,0,10019,0.18,13,image-keyboard-response,1,1,0,"current target, not in next trial",,,,2562
0100,-OPREfjoHF4ylnpJsHJ-,,,,,,,2.3,r,,,,,,,3,,1307,0100,,0.0-5.0-9.0-0.0,1,,,0,,,,,,,,,,,,,,,,,,,,,,,"<div style=""font-size:60px;"">+</div>",,,,,,,0100,,,fixation,,,,,11021,0.20,50,html-keyboard-response,,,,,,,,2285
0100,-OPREflHJ9vxnkGhMVEu,,0,,,,,2.3,r,False,,,,f,F,3,,1307,0100,1 (152).jpg,0.0-20.0-1.0-0.14,1,True,,0,False,,False,False,,False,False,,0,0,5,0,,,1,,,,0,,,,images/1 (152).jpg,,FF,,,0,0,0100,,,finalTest,,0,0,219,25807,0.45,984,image-keyboard-response,,,,final Foil,,,,1775
0100,-OPREflIxBnOs5c3Dizy,,,,,,,2.3,r,,,,,,,3,,1307,0100,,0.0-8.0-5.0-0.7,1,,,0,,,,,,,,4,,,,,,,,,8,,,,,,7,,,7,,,,0100,,55,digitPresentation,,,,,14844,0.26,274,html-keyboard-response,,,,,,,,1775
0100,-OPREflJlcoBa4UEX1G6,,0,,,,,2.3,r,False,,,,f,F,3,,1307,0100,1 (1370).jpg,0.0-20.0-1.0-0.17,1,True,,0,False,,False,False,,False,False,,0,0,5,10,,,1,,,,0,,,,images/1 (1370).jpg,,FF,,,0,0,0100,,,finalTest,,0,0,222,25844,0.45,987,image-keyboard-response,,,,final Foil,,,,1775
0100,-OPREflLabApQmhHwQ4y,,,,False,,,2.3,r,,,,,,T_nontarget,3,,1728,0100,1 (896).jpg,0.0-5.0-2.0-0.3,0,False,True,0,,True,True,False,False,False,False,1,1,0,,0,,,1,,,,,,,,images/1 (896).jpg,A,A,,4,4,0,0100,,,initial_study,0,0,0,0,9983,0.18,10,image-keyboard-response,1,0,0,"studied only, not in trial",,,,2562
0100,-OPREfmqbnEledmakXr8,,0,,,,,2.3,r,False,,,,f,F,3,,1307,0100,1 (101).jpg,0.0-19.0-1.0-0.43,1,True,,0,False,,False,False,,False,False,,0,0,4,5,,,1,,,,0,,,,images/1 (101).jpg,,FF,,,0,0,0100,,,finalTest,,0,0,200,25579,0.44,965,image-keyboard-response,,,,final Foil,,,,1775
0100,-OPREfmszy8vr45FNnFz,,,,,,,2.3,r,,,,,,,3,,1307,0100,,0.0-8.0-7.0-0.0,1,,,0,,,,,,,,,,,,,,,,,,,,,,,<p background:white>INCORRECT!</p>,,,,,,,0100,,,promptfeedback,,,,,14873,0.26,276,html-keyboard-response,,,,,,,,1775
0100,-OPREfmyabysHY7_3SGD,,,,False,,,2.3,r,,,,,,T_target,3,,1307,0100,1 (698).jpg,0.0-7.0-2.0-0.23,1,True,True,0,,True,True,False,True,True,False,3,3,0,1,0,,,1,,,,,,,,images/1 (698).jpg,B,B,,24,24,0,0100,,,initial_study,13,13,0,10,13392,0.24,182,image-keyboard-response,1,1,0,"current target, not in next trial",,,,1775
0100,-OPREfmzznsSPiDTGeeb,,,,,,,2.3,r,,,,,,,3,,1307,0100,,0.0-7.0-5.0-0.0,1,,,0,,,,,,,,3,,,,,,,,,1,,,,,,9,,,9,,,,0100,,56,digitPresentation,,,,,13510,0.24,191,html-keyboard-response,,,,,,,,1775
0100,-OPREfn-enGymhKdJsKU,,0,,,,,2.3,r,False,,,,f,F,3,,1307,0100,1 (933).jpg,0.0-21.0-1.0-0.16,1,True,,0,False,,False,False,,False,False,,0,0,6,1,,,1,,,,0,,,,images/1 (933).jpg,,FF,,,0,0,0100,,,finalTest,,0,0,269,26429,0.46,1034,image-keyboard-response,,,,final Foil,,,,1775
0100,-OPREfoSptixV4vP8abo,,,,False,,,2.3,r,,,,,,T_nontarget,3,,1307,0100,1 (829).jpg,0.0-12.0-2.0-0.28,1,True,True,0,,True,True,False,False,False,False,8,8,0,4,0,,,1,,,,,,,,images/1 (829).jpg,A,A,,29,29,0,0100,,,initial_study,0,0,0,170,19672,0.34,567,image-keyboard-response,1,0,0,"studied only, not in trial",,,,1775
0100,-OPREfoTJ_i__mVd9pLD,,0,,,,,2.3,r,False,,,,f,F,3,,1307,0100,1 (1575).jpg,0.0-20.0-1.0-0.9,1,True,,0,False,,False,False,,False,False,,0,0,5,6,,,1,,,,0,,,,images/1 (1575).jpg,,FF,,,0,0,0100,,,finalTest,,0,0,214,25751,0.45,979,image-keyboard-response,,,,final Foil,,,,1775
0100,-OPREfoVs41Mk716DiTi,,,,,,,2.3,r,,,,,,,3,,1307,0100,,0.0-7.0-9.0-0.0,1,,,0,,,,,,,,,,,,,,,,,,,,,,,"<div style=""font-size:60px;"">+</div>",,,,,,,0100,,,fixation,,,,,13642,0.24,202,html-keyboard-response,,,,,,,,1775
0100,-OPREfoXHcrXBx_IfBG9,,,,,,,2.3,r,,,,,,,3,,1307,0100,,0.0-7.0-7.0-0.0,1,,,0,,,,,,,,,,,,,,,,,,,,,,,<p background:white>INCORRECT!</p>,,,,,,,0100,,,promptfeedback,,,,,13619,0.24,200,html-keyboard-response,,,,,,,,1775
0100,-OPREfoYlA2mb3wkDjLE,,,,False,,,2.3,r,,,,,,T_target,3,,1307,0100,1 (1147).jpg,0.0-13.0-2.0-0.16,1,True,True,0,,True,True,False,True,True,False,9,9,0,3,0,,,1,,,,,,,,images/1 (1147).jpg,B,B,,17,17,0,0100,,,initial_study,17,17,0,133,20771,0.36,631,image-keyboard-response,1,1,0,"current target, not in next trial",,,,1775
0100,-OPREfo_QkieXcRHNvOL,,0,,,,,2.3,r,False,,,,f,F,3,,1307,0100,1 (1596).jpg,0.0-20.0-1.0-0.47,1,True,,0,False,,False,False,,False,False,,0,0,5,4,,,1,,,,0,,,,images/1 (1596).jpg,,FF,,,0,0,0100,,,finalTest,,0,0,252,26228,0.45,1017,image-keyboard-response,,,,final Foil,,,,1775
0100,-OPREfoaEZWw3x7G61dU,,0,,,,,2.3,r,False,,,,f,F,3,,1307,0100,1 (1609).jpg,0.0-20.0-1.0-0.16,1,True,,0,False,,False,False,,False,False,,0,0,5,8,,,1,,,,0,,,,images/1 (1609).jpg,,FF,,,0,0,0100,,,finalTest,,0,0,221,25832,0.45,986,image-keyboard-response,,,,final Foil,,,,1775
0100,-OPREfocBE7CmrUhjkhj,,0,,True,,,2.3,r,False,,False,,f,T_foil,3,,1307,0100,1 (1331).jpg,0.0-14.0-10.0-0.11,1,True,False,0,False,False,True,False,True,False,False,10,9,0,,0,,,2,,,,0,,,,images/1 (1331).jpg,Cn,Cn,,0,28,0,0100,,,initialTest_response,12,0,0,281,22618,0.39,746,image-keyboard-response,1,0,1,"studied only, in next trial, from last trial",,,,1775
0100,-OPREfpyHyKDMfPGgN0j,,0,,,,,2.3,r,False,,,,j,T_nontarget,3,,1307,0100,1 (2161).jpg,0.0-21.0-1.0-0.1,1,True,,0,True,,True,False,,False,False,,10,0,6,0,,,,,,,0,,,,images/1 (2161).jpg,,A,,,5,0,0100,,,finalTest,,0,0,254,26252,0.45,1019,image-keyboard-response,,,,"studied only, not in trial",,,,1775
0100,-OPREfq-gWZOikfh8mFa,,0,,,,,2.3,r,False,,,,j,T_target,3,,1307,0100,1 (2209).jpg,0.0-21.0-1.0-0.26,1,True,,0,True,,True,False,,True,False,,8,0,6,0,,,,,,,0,,,,images/1 (2209).jpg,,B,,,9,0,0100,,,finalTest,,6,0,279,26549,0.46,1044,image-keyboard-response,,,,"current target, not in next trial",,,,1775
0100,-OPREfq71lGMgtl2XLtD,,0,,True,,,2.3,r,False,,False,,f,T_foil,3,,1307,0100,1 (1436).jpg,0.0-14.0-10.0-0.12,1,True,False,0,False,False,True,False,True,False,False,10,9,0,,0,,,2,,,,0,,,,images/1 (1436).jpg,Cn,Cn,,0,8,0,0100,,,initialTest_response,13,0,0,80,22639,0.39,747,image-keyboard-response,1,0,1,"studied only, in next trial, from last trial",,,,1775
0100,-OPREfq8hG-7dicCriry,,0,,False,,,2.3,r,False,False,,,f,T_foil,3,,1307,0100,1 (1665).jpg,0.0-14.0-10.0-0.6,1,True,True,0,False,False,False,False,True,True,False,10,10,0,4,0,,,1,,,,0,,,,images/1 (1665).jpg,Fn+1,Fn,,0,0,0,0100,,,initialTest_response,7,7,0,186,22511,0.39,741,image-keyboard-response,0,1,0,"tested only, not in next trial",,,,1775
0100,-OPREfrY7Es9zpsXiZ_n,,0,,,,,2.3,r,False,,,,j,T_target,3,,1307,0100,1 (5).jpg,0.0-21.0-1.0-0.27,1,True,,0,True,,True,False,,True,False,,5,0,6,0,,,,,,,0,,,,images/1 (5).jpg,,B,,,22,0,0100,,,finalTest,,20,0,280,26561,0.46,1045,image-keyboard-response,,,,"current target, not in next trial",,,,1775
0100,-OPREfrZe0mRQxLzu4A7,,0,,False,,,2.3,r,False,False,,,j,T_target,3,,1307,0100,1 (1091).jpg,0.0-6.0-10.0-0.23,1,True,True,0,False,True,True,False,True,True,False,2,2,False,,0,,,1,,,,0,,,,images/1 (1091).jpg,B,B,,24,24,0,0100,,,initialTest_response,24,24,0,317,12908,0.23,150,image-keyboard-response,1,1,0,"current target, not in next trial",,,,1775
0100,-OPREfr_OhvIkB-qPvZq,,0,,,,,2.3,r,False,False,False,,j,T_target,3,,1307,0100,1 (1294).jpg,0.0-20.0-1.0-0.23,1,True,,0,True,,True,False,,True,True,,3,4,5,0,,,,,,,0,,,,images/1 (1294).jpg,,Dn,,,21,0,0100,,,finalTest,,27,2,228,25919,0.45,993,image-keyboard-response,,,,"current target, in next trial",,,,1775
0100,-OPREfrbclZcgZP94DI7,,0,,False,,,2.3,r,False,False,,,j,T_target,3,,1307,0100,1 (1478).jpg,0.0-6.0-10.0-0.8,1,False,True,0,False,True,True,False,True,True,False,2,2,False,,0,,,1,,,,0,,,,images/1 (1478).jpg,B,B,,9,9,0,0100,,,initialTest_response,9,9,0,0,12570,0.23,135,image-keyboard-response,1,1,0,"current target, not in next trial",,,,1775
0100,-OPREfrcpco_J-f_L0Pm,,0,,,,,2.3,r,False,,,,f,F,3,,1307,0100,1 (1724).jpg,0.0-16.0-1.0-0.20,1,True,,0,False,,False,False,,False,False,,0,0,1,1,,,1,,,,0,,,,images/1 (1724).jpg,,FF,,,0,0,0100,,,finalTest,,0,0,21,23290,0.41,786,image-keyboard-response,,,,final Foil,,,,1775
0100,-OPREfrd2Ao75-DvrXGM,,0,,True,,,2.3,r,False,False,False,,f,T_foil,3,,1307,0100,1 (171).jpg,0.0-6.0-10.0-0.13,1,True,False,0,False,False,True,False,True,True,True,2,1,2,,0,,,2,,,,0,,,,images/1 (171).jpg,Dn,Dn,,0,10,0,0100,,,initialTest_response,14,10,14,158,12686,0.23,140,image-keyboard-response,1,1,1,"current target, in next trial, from last trial",,,,1775
0100,-OPREfreDZTY__CEMEWl,,,,False,,,2.3,r,,,,,,T_target,3,,1307,0100,1 (1941).jpg,0.0-13.0-2.0-0.21,1,True,True,0,,True,True,False,True,True,False,9,9,0,3,0,,,1,,,,,,,,images/1 (1941).jpg,B,B,,22,22,0,0100,,,initial_study,9,9,0,137,20832,0.36,636,image-keyboard-response,1,1,0,"current target, not in next trial",,,,1775
0100,-OPREfrfvWzug7Hz4OmE,,,,,,,2.3,r,,,,,,,3,,1307,0100,,0.0-7.0-5.0-0.6,1,,,0,,,,,,,,3,,,,,,,,,7,,,,,,5,,,5,,,,0100,,56,digitPresentation,,,,,13582,0.24,197,html-keyboard-response,,,,,,,,1775
0100,-OPREfrg5YBB5RlLDiJ2,,,,False,,,2.3,r,,,,,,T_nontarget,3,,1307,0100,1 (2036).jpg,0.0-14.0-2.0-0.8,1,False,True,0,,True,True,False,False,False,False,10,10,0,,0,,,1,,,,,,,,images/1 (2036).jpg,A,A,,9,9,0,0100,,,initial_study,0,0,0,0,21909,0.38,699,image-keyboard-response,1,0,0,"studied only, not in trial",,,,1775
0100,-OPREft6OXQRI8dWIvuZ,,,,,,,2.3,r,,,,,,,3,,1307,0100,,0.0-7.0-5.0-0.7,1,,,0,,,,,,,,3,,,,,,,,,8,,,,,,9,,,9,,,,0100,,56,digitPresentation,,,,,13594,0.24,198,html-keyboard-response,,,,,,,,1775
0100,-OPREft7Q-JQjIiH1v6T,,0,,,,,2.3,r,False,,,,j,T_nontarget,3,,1307,0100,1 (960).jpg,0.0-21.0-1.0-0.39,1,True,,0,True,,True,False,,False,False,,7,0,6,0,,,,,,,0,,,,images/1 (960).jpg,,A,,,27,0,0100,,,finalTest,,0,0,292,26701,0.46,1057,image-keyboard-response,,,,"studied only, not in trial",,,,1775
0100,-OPREftAN4M1qBSZPhM7,,0,,False,,,2.3,r,False,False,,,j,T_target,3,,1307,0100,1 (2350).jpg,0.0-6.0-10.0-0.9,1,False,True,0,False,True,True,False,True,True,False,2,2,False,,0,,,1,,,,0,,,,images/1 (2350).jpg,B,B,,15,15,0,0100,,,initialTest_response,10,10,0,0,12598,0.23,136,image-keyboard-response,1,1,0,"current target, not in next trial",,,,1775
0100,-OPREftBeFTTnB9tVxxS,,0,,,,,2.3,r,False,,,,j,T_target,3,,1307,0100,1 (274).jpg,0.0-17.0-1.0-0.46,1,True,,0,True,,True,False,,True,False,,10,0,2,0,,,,,,,0,,,,images/1 (274).jpg,,B,,,12,0,0100,,,finalTest,,19,0,107,24406,0.42,872,image-keyboard-response,,,,"current target, not in next trial",,,,1775
0100,-OPREftD7IE3Is3-s5YO,,0,,,,,2.3,r,False,,,,f,F,3,,1307,0100,1 (1893).jpg,0.0-20.0-1.0-0.15,1,True,,0,False,,False,False,,False,False,,0,0,5,10,,,1,,,,0,,,,images/1 (1893).jpg,,FF,,,0,0,0100,,,finalTest,,0,0,220,25820,0.45,985,image-keyboard-response,,,,final Foil,,,,1775
0100,-OPREftEvv4Jx5voBK5J,,0,,True,,,2.3,r,False,False,,,f,T_foil,3,,1307,0100,1 (1476).jpg,0.0-5.0-10.0-0.19,1,True,True,0,False,False,False,False,True,True,True,1,1,2,10,0,,,1,,,,0,,,,images/1 (1476).jpg,Fnn+1,Fnn,,0,0,0,0100,,,initialTest_response,20,20,26,463,11625,0.21,70,image-keyboard-response,0,1,1,"tested only, in next trial",,,,2285
0100,-OPREftFDtM87UEhfl49,,0,,,,,2.3,r,False,,,,j,T_nontarget,3,,1307,0100,1 (1165).jpg,0.0-20.0-1.0-0.10,1,True,,0,True,,True,False,,False,False,,10,0,5,0,,,,,,,0,,,,images/1 (1165).jpg,,A,,,1,0,0100,,,finalTest,,0,0,215,25762,0.45,980,image-keyboard-response,,,,"studied only, not in trial",,,,1775
0100,-OPREftHKQYhXigpA8A2,,,,False,,,2.3,r,,,,,,T_target,3,,1307,0100,1 (1497).jpg,0.0-14.0-2.0-0.28,1,True,True,0,,True,True,False,True,True,False,10,10,0,7,0,,,1,,,,,,,,images/1 (1497).jpg,B,B,,29,29,0,0100,,,initial_study,18,18,0,311,22168,0.39,719,image-keyboard-response,1,1,0,"current target, not in next trial",,,,1775
0100,-OPREftIZP-Su7bmefWo,,,,True,,,2.3,r,,,,,,T_target,3,,1307,0100,1 (1592).jpg,0.0-12.0-2.0-0.23,1,False,True,0,,True,True,False,True,True,True,8,8,9,,0,,,1,,,,,,,,images/1 (1592).jpg,Dn+1,Dn,,24,24,0,0100,,,initial_study,14,14,12,0,19610,0.34,562,image-keyboard-response,1,1,1,"current target, in next trial",,,,1775
0100,-OPREfueWZ5kcYJVAdXU,,,,False,,,2.3,r,,,,,,T_nontarget,3,,1307,0100,1 (1398).jpg,0.0-12.0-2.0-0.10,1,False,True,0,,True,True,False,False,False,False,8,8,0,,0,,,1,,,,,,,,images/1 (1398).jpg,A,A,,11,11,0,0100,,,initial_study,0,0,0,0,19453,0.34,549,image-keyboard-response,1,0,0,"studied only, not in trial",,,,1775
0100,-OPREfujroAIGX9VWeLf,,0,,,,,2.3,r,False,False,False,,j,T_target,3,,1307,0100,1 (1785).jpg,0.0-21.0-1.0-0.0,1,True,,0,True,,True,False,,True,True,,5,6,6,0,,,,,,,0,,,,images/1 (1785).jpg,,Dn,,,18,0,0100,,,finalTest,,19,9,253,26240,0.45,1018,image-keyboard-response,,,,"current target, in next trial",,,,1775
0100,-OPREfuljBOxonWWOzT7,,0,,False,,,2.3,r,False,False,,,j,T_target,3,,1307,0100,1 (527).jpg,0.0-7.0-10.0-0.20,1,True,True,0,False,True,True,False,True,True,False,3,3,False,,0,,,1,,,,0,,,,images/1 (527).jpg,B,B,,27,27,0,0100,,,initialTest_response,21,21,0,232,14107,0.25,223,image-keyboard-response,1,1,0,"current target, not in next trial",,,,1775
0100,-OPREfwDKtWleYBTQhlp,,,,,,,2.3,r,,,,,,,3,,1307,0100,,0.0-12.0-5.0-0.6,1,,,0,,,,,,,,8,,,,,,,,,7,,,,,,8,,,8,,,,0100,,53,digitPresentation,,,,,19791,0.35,577,html-keyboard-response,,,,,,,,1775
0100,-OPREfwHyzQxbb6bf0Au,,0,,,,,2.3,r,False,,False,,j,T_nontarget,3,,1307,0100,1 (663).jpg,0.0-22.0-1.0-0.37,1,True,,0,True,,True,False,,False,True,,3,4,7,0,,,,,,,0,,,,images/1 (663).jpg,,Cn,,,25,0,0100,,,finalTest,,0,20,338,27261,0.47,1103,image-keyboard-response,,,,"studied only, in next trial",,,,1775
0100,-OPREfwJ1lmkQjUje8x8,,,,,,,2.3,r,,,,,,,3,,1307,0100,,0.0-8.0-1.0-0.0,1,,,0,,,,,,,,,,,,,,,,,,,,,,,"<div style=""font-size:60px;"">+</div>",,,,,,,0100,,,fixation,,,,,14340,0.26,234,html-keyboard-response,,,,,,,,1775
0100,-OPREfwKRcdHv1PqEk64,,,,,,,2.3,r,,,,,,,3,,1307,0100,,0.0-12.0-5.0-0.1,1,,,0,,,,,,,,8,,,,,,,,,2,,,,,,9,,,9,,,,0100,,53,digitPresentation,,,,,19733,0.35,572,html-keyboard-response,,,,,,,,1775
0100,-OPREfxnjPgpdCOz5z6Q,,0,,True,,,2.3,r,False,False,,,f,T_foil,3,,1307,0100,1 (1827).jpg,0.0-5.0-10.0-0.2,1,True,True,0,False,False,False,False,True,True,True,1,1,2,5,0,,,1,,,,0,,,,images/1 (1827).jpg,Fnn+1,Fnn,,0,0,0,0100,,,initialTest_response,3,3,6,244,11154,0.20,53,image-keyboard-response,0,1,1,"tested only, in next trial",,,,2285
0100,-OPREfxoouPj5nXi0woU,,,,True,,,2.3,r,,,,,,T_target,3,,1307,0100,1 (272).jpg,0.0-7.0-2.0-0.10,1,True,True,0,,True,True,False,True,True,True,3,3,4,1,0,,,1,,,,,,,,images/1 (272).jpg,Dn+1,Dn,,11,11,0,0100,,,initial_study,24,24,24,33,13231,0.24,169,image-keyboard-response,1,1,1,"current target, in next trial",,,,1775
0100,-OPREfxrKOL8VrH4d5MX,,,,False,,,2.3,r,,,,,,T_target,3,,1307,0100,1 (541).jpg,0.0-12.0-2.0-0.27,1,True,True,0,,True,True,False,True,True,False,8,8,0,1,0,,,1,,,,,,,,images/1 (541).jpg,B,B,,28,28,0,0100,,,initial_study,11,11,0,39,19659,0.34,566,image-keyboard-response,1,1,0,"current target, not in next trial",,,,1775
0100,-OPREfxt8ZwZv1ZahpZo,,,,,,,2.3,r,,,,,,,3,,1307,0100,,0.0-12.0-5.0-0.7,1,,,0,,,,,,,,8,,,,,,,,,8,,,,,,5,,,5,,,,0100,,53,digitPresentation,,,,,19803,0.35,578,html-keyboard-response,,,,,,,,1775
0100,-OPREfzMFIc8HNeFd9sx,,,,True,,,2.3,r,,,,,,T_nontarget,3,,1307,0100,1 (677).jpg,0.0-8.0-2.0-0.10,1,False,True,0,,True,True,False,False,False,True,4,4,5,,0,,,1,,,,,,,,images/1 (677).jpg,Cn+1,Cn,,11,11,0,0100,,,initial_study,0,0,17,0,14482,0.26,245,image-keyboard-response,1,0,1,"studied only, in next trial",,,,1775
0100,-OPREfzODYJwb4P6Shaa,,,,True,,,2.3,r,,,,,,T_target,3,,1307,0100,1 (1784).jpg,0.0-7.0-2.0-0.29,1,False,True,0,,True,True,False,True,True,True,3,3,4,,0,,,1,,,,,,,,images/1 (1784).jpg,Dn+1,Dn,,30,30,0,0100,,,initial_study,1,1,13,0,13475,0.24,188,image-keyboard-response,1,1,1,"current target, in next trial",,,,1775
0100,-OPREfzRqYY5DBV8C0Vl,,0,,,,,2.3,r,False,,,,f,F,3,,1307,0100,1 (1696).jpg,0.0-21.0-1.0-0.5,1,True,,0,False,,False,False,,False,False,,0,0,6,5,,,1,,,,0,,,,images/1 (1696).jpg,,FF,,,0,0,0100,,,finalTest,,0,0,258,26300,0.46,1023,image-keyboard-response,,,,final Foil,,,,1775
0100,-OPREfzTHvp-iOOenOfx,,0,,,,,2.3,r,False,,,,j,T_target,3,,1307,0100,1 (1041).jpg,0.0-19.0-1.0-0.9,1,True,,0,True,,True,False,,True,False,,6,0,4,0,,,,,,,0,,,,images/1 (1041).jpg,,B,,,6,0,0100,,,finalTest,,26,0,166,25151,0.44,931,image-keyboard-response,,,,"current target, not in next trial",,,,1775
0100,-OPREg-wAgUWuWE1Bnor,,0,,,,,2.3,r,False,,,,j,T_nontarget,3,,1307,0100,1 (565).jpg,0.0-19.0-1.0-0.7,1,True,,0,True,,True,False,,False,False,,7,0,4,0,,,,,,,0,,,,images/1 (565).jpg,,A,,,20,0,0100,,,finalTest,,0,0,164,25126,0.44,929,image-keyboard-response,,,,"studied only, not in trial",,,,1775
0100,-OPREg-x3kYWUMgdI5bK,,0,,True,,,2.3,r,False,,False,,f,T_foil,3,,1307,0100,1 (1049).jpg,0.0-7.0-10.0-0.13,1,True,False,0,False,False,True,False,True,False,True,3,2,3,,0,,,2,,,,0,,,,images/1 (1049).jpg,Cn,Cn,,0,22,0,0100,,,initialTest_response,14,0,14,65,13951,0.25,216,image-keyboard-response,1,0,1,"studied only, in next trial, from last trial",,,,1775
0100,-OPREg-yod11thGspSSN,,0,,,,,2.3,r,False,,,,j,T_target,3,,1307,0100,1 (678).jpg,0.0-19.0-1.0-0.11,1,True,,0,True,,True,False,,True,False,,3,0,4,0,,,,,,,0,,,,images/1 (678).jpg,,B,,,22,0,0100,,,finalTest,,20,0,168,25177,0.44,933,image-keyboard-response,,,,"current target, not in next trial",,,,1775
0100,-OPREg02keWLazs1j1m_,,0,,,,,2.3,r,False,,,,f,F,3,,1307,0100,1 (2013).jpg,0.0-21.0-1.0-0.14,1,True,,0,False,,False,False,,False,False,,0,0,6,0,,,1,,,,0,,,,images/1 (2013).jpg,,FF,,,0,0,0100,,,finalTest,,0,0,267,26406,0.46,1032,image-keyboard-response,,,,final Foil,,,,1775
0100,-OPREg03WMhgCY6JNsuJ,,0,,,,,2.3,r,False,,,,f,F,3,,1307,0100,1 (1307).jpg,0.0-16.0-1.0-0.21,1,True,,0,False,,False,False,,False,False,,0,0,1,4,,,1,,,,0,,,,images/1 (1307).jpg,,FF,,,0,0,0100,,,finalTest,,0,0,22,23306,0.41,787,image-keyboard-response,,,,final Foil,,,,1775
0100,-OPREg05vj20yo8m7XPp,,0,,,,,2.3,r,False,,,,f,F,3,,1307,0100,1 (157).jpg,0.0-16.0-1.0-0.15,1,True,,0,False,,False,False,,False,False,,0,0,1,5,,,1,,,,0,,,,images/1 (157).jpg,,FF,,,0,0,0100,,,finalTest,,0,0,16,23227,0.40,781,image-keyboard-response,,,,final Foil,,,,1775
0100,-OPREg1UMvjwLahFPlRQ,,,,False,,,2.3,r,,,,,,T_target,3,,1307,0100,1 (678).jpg,0.0-7.0-2.0-0.21,1,True,True,0,,True,True,False,True,True,False,3,3,0,4,0,,,1,,,,,,,,images/1 (678).jpg,B,B,,22,22,0,0100,,,initial_study,20,20,0,168,13368,0.24,180,image-keyboard-response,1,1,0,"current target, not in next trial",,,,1775
0100,-OPREg1XOb2IXTcFFFVr,,0,,,,,2.3,r,False,,,,f,F,3,,1307,0100,1 (1222).jpg,0.0-21.0-1.0-0.17,1,True,,0,False,,False,False,,False,False,,0,0,6,0,,,1,,,,0,,,,images/1 (1222).jpg,,FF,,,0,0,0100,,,finalTest,,0,0,270,26442,0.46,1035,image-keyboard-response,,,,final Foil,,,,1775
0100,-OPREg1_Q__pI6B96rwQ,,0,,,,,2.3,r,False,,,,f,F,3,,1307,0100,1 (1156).jpg,0.0-21.0-1.0-0.20,1,True,,0,False,,False,False,,False,False,,0,0,6,0,,,1,,,,0,,,,images/1 (1156).jpg,,FF,,,0,0,0100,,,finalTest,,0,0,273,26481,0.46,1038,image-keyboard-response,,,,final Foil,,,,1775
0100,-OPREg1aLfv-Ardx4N03,,0,,,,,2.3,r,False,,,,f,F,3,,1307,0100,1 (1632).jpg,0.0-21.0-1.0-0.21,1,True,,0,False,,False,False,,False,False,,0,0,6,0,,,1,,,,0,,,,images/1 (1632).jpg,,FF,,,0,0,0100,,,finalTest,,0,0,274,26492,0.46,1039,image-keyboard-response,,,,final Foil,,,,1775
0100,-OPREg1cEz2qrDxfFB8K,,0,,,,,2.3,r,False,,,,f,F,3,,1307,0100,1 (1274).jpg,0.0-21.0-1.0-0.19,1,True,,0,False,,False,False,,False,False,,0,0,6,0,,,1,,,,0,,,,images/1 (1274).jpg,,FF,,,0,0,0100,,,finalTest,,0,0,272,26468,0.46,1037,image-keyboard-response,,,,final Foil,,,,1775
0100,-OPREg1dstvljsVUdmLi,,0,,,,,2.3,r,False,False,False,,j,T_target,3,,1307,0100,1 (403).jpg,0.0-21.0-1.0-0.24,1,True,,0,True,,True,False,,True,True,,1,2,6,0,,,,,,,0,,,,images/1 (403).jpg,,Dn,,,21,0,0100,,,finalTest,,23,22,277,26525,0.46,1042,image-keyboard-response,,,,"current target, in next trial",,,,1775
0100,-OPREg32bDX-JXrY5V39,,,,False,,,2.3,r,,,,,,T_nontarget,3,,1307,0100,1 (1905).jpg,0.0-14.0-2.0-0.12,1,False,True,0,,True,True,False,False,False,False,10,10,0,,0,,,1,,,,,,,,images/1 (1905).jpg,A,A,,13,13,0,0100,,,initial_study,0,0,0,0,21960,0.38,703,image-keyboard-response,1,0,0,"studied only, not in trial",,,,1775
0100,-OPREg354NfaiKJf44eH,,0,,,,,2.3,r,False,,False,,j,T_nontarget,3,,1307,0100,1 (1331).jpg,0.0-21.0-1.0-0.28,1,True,,0,True,,True,False,,False,False,,9,0,6,0,,,,,,,0,,,,images/1 (1331).jpg,,Cn,,,28,0,0100,,,finalTest,,0,0,281,26573,0.46,1046,image-keyboard-response,,,,"studied only, in next trial",,,,1775
0100,-OPREg37-iwXU4g_ri3G,,,,False,,,2.3,r,,,,,,T_target,3,,1307,0100,1 (1304).jpg,0.0-9.0-2.0-0.6,1,True,True,0,,True,True,False,True,True,False,5,5,0,4,0,,,1,,,,,,,,images/1 (1304).jpg,B,B,,7,7,0,0100,,,initial_study,23,23,0,195,15676,0.28,317,image-keyboard-response,1,1,0,"current target, not in next trial",,,,1775
0100,-OPREg39yLoa9bHRT1LU,,0,,,,,2.3,r,False,,,,f,F,3,,1307,0100,1 (1345).jpg,0.0-21.0-1.0-0.29,1,True,,0,False,,False,False,,False,False,,0,0,6,6,,,1,,,,0,,,,images/1 (1345).jpg,,FF,,,0,0,0100,,,finalTest,,0,0,282,26586,0.46,1047,image-keyboard-response,,,,final Foil,,,,1775
0100,-OPREg3A9rlPQtUZzf_R,,,,,,,2.3,r,False,,,56,,,3,,1307,0100,,0.0-7.0-6.0-0.0-0.0,1,,,0,,,,,,,,,,,,,,,,,,,,"{'answer': 'Skipped after 0.01 seconds', 'question': ""Please enter the sum using your number keyboard <p>Press 'enter' to continue.</p>""}",Please enter the sum using your number keyboard <p>Press 'enter' to continue.</p>,,,,,,,,,0100,,,answer_counting,,,,,13607,0.24,199,survey-text,,,,,,,,1775
0100,-OPREg3B6xJE4RNDoADQ,,0,,,,,2.3,r,False,,,,f,F,3,,1307,0100,1 (1062).jpg,0.0-21.0-1.0-0.36,1,True,,0,False,,False,False,,False,False,,0,0,6,3,,,1,,,,0,,,,images/1 (1062).jpg,,FF,,,0,0,0100,,,finalTest,,0,0,289,26665,0.46,1054,image-keyboard-response,,,,final Foil,,,,1775
0100,-OPREg3C25wNfUC08bdW,,0,,,,,2.3,r,False,,,,j,T_nontarget,3,,1307,0100,1 (1216).jpg,0.0-21.0-1.0-0.37,1,True,,0,True,,True,False,,False,False,,1,0,6,0,,,,,,,0,,,,images/1 (1216).jpg,,A,,,12,0,0100,,,finalTest,,0,0,290,26677,0.46,1055,image-keyboard-response,,,,"studied only, not in trial",,,,1775
0100,-OPREg3EimUIV015tHP_,,0,,,,,2.3,r,False,,,,f,F,3,,1307,0100,1 (1711).jpg,0.0-21.0-1.0-0.38,1,True,,0,False,,False,False,,False,False,,0,0,6,4,,,1,,,,0,,,,images/1 (1711).jpg,,FF,,,0,0,0100,,,finalTest,,0,0,291,26689,0.46,1056,image-keyboard-response,,,,final Foil,,,,1775
0100,-OPREg4bu2_mMZ-ZYQxb,,,,True,,,2.3,r,,,,,,T_target,3,,1307,0100,1 (1943).jpg,0.0-8.0-2.0-0.11,1,False,True,0,,True,True,False,True,True,True,4,4,5,,0,,,1,,,,,,,,images/1 (1943).jpg,Dn+1,Dn,,12,12,0,0100,,,initial_study,30,30,1,0,14494,0.26,246,image-keyboard-response,1,1,1,"current target, in next trial",,,,1775
0100,-OPREg4ccWqmlpUsSYhC,,,,,,,2.3,r,False,,,55,,,3,,1307,0100,,0.0-8.0-6.0-0.0-0.0,1,,,0,,,,,,,,,,,,,,,,,,,,"{'answer': 'Skipped after 0.01 seconds', 'question': ""Please enter the sum using your number keyboard <p>Press 'enter' to continue.</p>""}",Please enter the sum using your number keyboard <p>Press 'enter' to continue.</p>,,,,,,,,,0100,,,answer_counting,,,,,14861,0.26,275,survey-text,,,,,,,,1775
0100,-OPREg4h3KlzomNJTaw-,,0,,,,,2.3,r,False,,,,j,T_target,3,,1307,0100,1 (1860).jpg,0.0-21.0-1.0-0.43,1,True,,0,True,,True,False,,True,False,,5,0,6,0,,,,,,,0,,,,images/1 (1860).jpg,,B,,,8,0,0100,,,finalTest,,29,0,296,26751,0.46,1061,image-keyboard-response,,,,"current target, not in next trial",,,,1775
0100,-OPREg4jX1HKjjDJsIaG,,0,,,,,2.3,r,False,,,,j,T_target,3,,1307,0100,1 (1976).jpg,0.0-21.0-1.0-0.44,1,True,,0,True,,True,False,,True,False,,2,0,6,0,,,,,,,0,,,,images/1 (1976).jpg,,B,,,26,0,0100,,,finalTest,,4,0,297,26762,0.46,1062,image-keyboard-response,,,,"current target, not in next trial",,,,1775
0100,-OPREg4kmF7UbPyuaQaY,,0,,,,,2.3,r,False,,,,f,F,3,,1307,0100,1 (2019).jpg,0.0-21.0-1.0-0.42,1,True,,0,False,,False,False,,False,False,,0,0,6,8,,,1,,,,0,,,,images/1 (2019).jpg,,FF,,,0,0,0100,,,finalTest,,0,0,295,26739,0.46,1060,image-keyboard-response,,,,final Foil,,,,1775
0100,-OPREg4lwY5w9iwVIzpk,,0,,,,,2.3,r,False,,,,f,F,3,,1307,0100,1 (2257).jpg,0.0-21.0-1.0-0.41,1,True,,0,False,,False,False,,False,False,,0,0,6,9,,,1,,,,0,,,,images/1 (2257).jpg,,FF,,,0,0,0100,,,finalTest,,0,0,294,26726,0.46,1059,image-keyboard-response,,,,final Foil,,,,1775
0100,-OPREg6AwUxEJfA3PVTb,,,,,,,2.3,r,,,,,,,3,,1307,0100,,0.0-9.0-7.0-0.0,1,,,0,,,,,,,,,,,,,,,,,,,,,,,<p background:white>INCORRECT!</p>,,,,,,,0100,,,promptfeedback,,,,,16122,0.29,352,html-keyboard-response,,,,,,,,1775
0100,-OPREg6BhfMvpdtmYh6G,,,,False,,,2.3,r,,,,,,T_nontarget,3,,1307,0100,1 (1713).jpg,0.0-8.0-2.0-0.22,1,True,True,0,,True,True,False,False,False,False,4,4,0,8,0,,,1,,,,,,,,images/1 (1713).jpg,A,A,,23,23,0,0100,,,initial_study,0,0,0,360,14637,0.26,257,image-keyboard-response,1,0,0,"studied only, not in trial",,,,1775
0100,-OPREg6Ed4o-bfxYk6Gb,,,,False,,,2.3,r,,,,,,T_nontarget,3,,1307,0100,1 (281).jpg,0.0-6.0-2.0-0.9,1,True,True,0,,True,True,False,False,False,False,2,2,0,4,0,,,1,,,,,,,,images/1 (281).jpg,A,A,,10,10,0,0100,,,initial_study,0,0,0,202,11989,0.22,92,image-keyboard-response,1,0,0,"studied only, not in trial",,,,1775
0100,-OPREg6HFFX_ElzH-cEM,,0,,,,,2.3,r,False,False,,,j,T_target,3,,1307,0100,1 (1881).jpg,0.0-19.0-1.0-0.2,1,True,,0,True,,True,False,,True,False,,10,0,4,0,,,,,,,0,,,,images/1 (1881).jpg,,Dn,,,22,0,0100,,,finalTest,,29,0,159,25071,0.43,924,image-keyboard-response,,,,"current target, in next trial",,,,1775
0100,-OPREg6JANR4H53EWEQj,,,,,,,2.3,r,,,,,,,3,,1307,0100,,0.0-7.0-1.0-0.0,1,,,0,,,,,,,,,,,,,,,,,,,,,,,"<div style=""font-size:60px;"">+</div>",,,,,,,0100,,,fixation,,,,,13076,0.23,158,html-keyboard-response,,,,,,,,1775
0100,-OPREg6KoA-bsyCKWNsS,,0,,False,,,2.3,r,False,False,,,f,T_foil,3,,1307,0100,1 (1432).jpg,0.0-7.0-10.0-0.10,1,True,True,0,False,False,False,False,True,True,False,3,3,False,10,0,,,1,,,,0,,,,images/1 (1432).jpg,Fn+1,Fn,,0,0,0,0100,,,initialTest_response,11,11,0,483,13886,0.25,213,image-keyboard-response,0,1,0,"tested only, not in next trial",,,,1775
0100,-OPREg6LYm3rtbRofO6K,,,,,,,2.3,r,,,,,,,3,,1307,0100,,0.0-7.0-4.0-0.0,1,,,0,,,,,,,,,,,,,,,,,,,,,,,"<div style=""font-size:60px;"">+</div>",,,,,,,0100,,,fixation,,,,,13498,0.24,190,html-keyboard-response,,,,,,,,1775
0100,-OPREg7iDMPTG0i7puQt,,0,,,,,2.3,r,False,,,,f,F,3,,1307,0100,1 (1113).jpg,0.0-19.0-1.0-0.3,1,True,,0,False,,False,False,,False,False,,0,0,4,8,,,1,,,,0,,,,images/1 (1113).jpg,,FF,,,0,0,0100,,,finalTest,,0,0,160,25082,0.43,925,image-keyboard-response,,,,final Foil,,,,1775
0100,-OPREg7kZry_-63DkVt7,,0,,,,,2.3,r,False,,False,,j,T_nontarget,3,,1307,0100,1 (1049).jpg,0.0-17.0-1.0-0.4,1,True,,0,True,,True,False,,False,True,,2,3,2,0,,,,,,,0,,,,images/1 (1049).jpg,,Cn,,,22,0,0100,,,finalTest,,0,14,65,23865,0.41,830,image-keyboard-response,,,,"studied only, in next trial",,,,1775
0100,-OPREg7o6lfWq45Yso3B,,0,,False,,,2.3,r,False,False,,,j,T_target,3,,1307,0100,1 (1607).jpg,0.0-5.0-10.0-0.0,1,True,True,0,False,True,True,False,True,True,False,1,1,False,,0,,,1,,,,0,,,,images/1 (1607).jpg,B,B,,18,18,0,0100,,,initialTest_response,1,1,0,438,11055,0.20,51,image-keyboard-response,1,1,0,"current target, not in next trial",,,,2285
0100,-OPREg7r1LlIsuMp-Q6e,,,,False,,,2.3,r,,,,,,T_target,3,,1728,0100,1 (1269).jpg,0.0-5.0-2.0-0.0,0,True,True,0,,True,True,False,True,True,False,1,1,0,8,0,,,1,,,,,,,,images/1 (1269).jpg,B,B,,1,1,0,0100,,,initial_study,5,5,0,374,9949,0.18,7,image-keyboard-response,1,1,0,"current target, not in next trial",,,,2562
0100,-OPREgArh9pXPZyOIQBK,,,,False,,,2.3,r,,,,,,T_target,3,,1728,0100,1 (1859).jpg,0.0-5.0-2.0-0.12,0,True,True,0,,True,True,False,True,True,False,1,1,0,2,0,,,1,,,,,,,,images/1 (1859).jpg,B,B,,13,13,0,0100,,,initial_study,6,6,0,79,10096,0.19,19,image-keyboard-response,1,1,0,"current target, not in next trial",,,,2562
0100,-OPREgAsQToeOkAm9rKm,,,,False,,,2.3,r,,,,,,T_nontarget,3,,1728,0100,1 (1216).jpg,0.0-5.0-2.0-0.11,0,True,True,0,,True,True,False,False,False,False,1,1,0,6,0,,,1,,,,,,,,images/1 (1216).jpg,A,A,,12,12,0,0100,,,initial_study,0,0,0,290,10085,0.18,18,image-keyboard-response,1,0,0,"studied only, not in trial",,,,2562
0100,-OPREgAtJPjdaHkVHSHI,,,,True,,,2.3,r,,,,,,T_nontarget,3,,1728,0100,1 (1988).jpg,0.0-5.0-2.0-0.10,0,True,True,0,,True,True,False,False,False,True,1,1,2,4,0,,,1,,,,,,,,images/1 (1988).jpg,Cn+1,Cn,,11,11,0,0100,,,initial_study,0,0,15,174,10072,0.18,17,image-keyboard-response,1,0,1,"studied only, in next trial",,,,2562
0100,-OPREgAu_q9U86vQw8IS,,,,False,,,2.3,r,,,,,,T_nontarget,3,,1728,0100,1 (1383).jpg,0.0-5.0-2.0-0.14,0,True,True,0,,True,True,False,False,False,False,1,1,0,3,0,,,1,,,,,,,,images/1 (1383).jpg,A,A,,15,15,0,0100,,,initial_study,0,0,0,126,10120,0.19,21,image-keyboard-response,1,0,0,"studied only, not in trial",,,,2562
0100,-OPREgAweWEzM9RNtQMH,,,,False,,,2.3,r,,,,,,T_nontarget,3,,1307,0100,1 (1554).jpg,0.0-6.0-2.0-0.1,1,True,True,0,,True,True,False,False,False,False,2,2,0,1,0,,,1,,,,,,,,images/1 (1554).jpg,A,A,,2,2,0,0100,,,initial_study,0,0,0,48,11904,0.22,84,image-keyboard-response,1,0,0,"studied only, not in trial",,,,2285
0100,-OPREgAzOWD2b7viQs52,,,,False,,,2.3,r,,,,,,T_nontarget,3,,1728,0100,1 (1182).jpg,0.0-5.0-2.0-0.23,0,True,True,0,,True,True,False,False,False,False,1,1,0,10,0,,,1,,,,,,,,images/1 (1182).jpg,A,A,,24,24,0,0100,,,initial_study,0,0,0,467,10232,0.19,30,image-keyboard-response,1,0,0,"studied only, not in trial",,,,2562
0100,-OPREgB-rXocl1wv0EWh,,0,,,,,2.3,r,False,,,,f,F,3,,1307,0100,1 (1929).jpg,0.0-19.0-1.0-0.8,1,True,,0,False,,False,False,,False,False,,0,0,4,0,,,1,,,,0,,,,images/1 (1929).jpg,,FF,,,0,0,0100,,,finalTest,,0,0,165,25139,0.44,930,image-keyboard-response,,,,final Foil,,,,1775
0100,-OPREgCQZFROJl_8u6-D,,0,,,,,2.3,r,False,,,,j,T_target,3,,1307,0100,1 (2150).jpg,0.0-17.0-1.0-0.21,1,True,,0,True,,True,False,,True,False,,9,0,2,0,,,,,,,0,,,,images/1 (2150).jpg,,B,,,1,0,0100,,,finalTest,,13,0,82,24078,0.42,847,image-keyboard-response,,,,"current target, not in next trial",,,,1775
0100,-OPREgCSO3xviyIpkXld,,,,False,,,2.3,r,,,,,,T_nontarget,3,,1307,0100,1 (1141).jpg,0.0-7.0-2.0-0.12,1,True,True,0,,True,True,False,False,False,False,3,3,0,7,0,,,1,,,,,,,,images/1 (1141).jpg,A,A,,13,13,0,0100,,,initial_study,0,0,0,320,13256,0.24,171,image-keyboard-response,1,0,0,"studied only, not in trial",,,,1775
0100,-OPREgCUi7HgHoyXqK5n,,0,,,,,2.3,r,False,,,,f,F,3,,1307,0100,1 (2086).jpg,0.0-19.0-1.0-0.12,1,True,,0,False,,False,False,,False,False,,0,0,4,8,,,1,,,,0,,,,images/1 (2086).jpg,,FF,,,0,0,0100,,,finalTest,,0,0,169,25189,0.44,934,image-keyboard-response,,,,final Foil,,,,1775
0100,-OPREgCVlETOsmRLmzpI,,0,,,,,2.3,r,False,,,,j,T_nontarget,3,,1307,0100,1 (829).jpg,0.0-19.0-1.0-0.13,1,True,,0,True,,True,False,,False,False,,8,0,4,0,,,,,,,0,,,,images/1 (829).jpg,,A,,,29,0,0100,,,finalTest,,0,0,170,25201,0.44,935,image-keyboard-response,,,,"studied only, not in trial",,,,1775
0100,-OPREgCXVKikL9dlOng9,,,,,,,2.3,r,,,,,,,3,,1307,0100,,0.0-5.0-7.0-0.0,1,,,0,,,,,,,,,,,,,,,,,,,,,,,<p background:white>INCORRECT!</p>,,,,,,,0100,,,promptfeedback,,,,,10982,0.20,48,html-keyboard-response,,,,,,,,2285
0100,-OPREgCYFnBx1p9V0FFF,,0,,True,,,2.3,r,False,False,,,f,T_foil,3,,1307,0100,1 (1254).jpg,0.0-7.0-10.0-0.9,1,True,True,0,False,False,False,False,True,True,True,3,3,4,6,0,,,1,,,,0,,,,images/1 (1254).jpg,Fnn+1,Fnn,,0,0,0,0100,,,initialTest_response,10,10,29,257,13853,0.25,212,image-keyboard-response,0,1,1,"tested only, in next trial",,,,1775
0100,-OPREgC_XqHECoAEMmoF,,0,,,,,2.3,r,False,,,,f,F,3,,1307,0100,1 (1876).jpg,0.0-17.0-1.0-0.26,1,True,,0,False,,False,False,,False,False,,0,0,2,1,,,1,,,,0,,,,images/1 (1876).jpg,,FF,,,0,0,0100,,,finalTest,,0,0,87,24143,0.42,852,image-keyboard-response,,,,final Foil,,,,1775
0100,-OPREgDy4U79DDtw0ydu,,,,,,,2.3,r,,,,,,,3,,1307,0100,,0.0-13.0-5.0-0.2,1,,,0,,,,,,,,9,,,,,,,,,3,,,,,,6,,,6,,,,0100,,57,digitPresentation,,,,,20987,0.37,649,html-keyboard-response,,,,,,,,1775
0100,-OPREgE-PrP7xtRFDnYO,,,,,,,2.3,r,,,,,,,3,,1728,0100,,0.0-4.0,0,,,0,,,,,,,,,,,,,,,,,,,,,,1303,,,,,,,,0100,True,,,,,,,9834,0.18,4,fullscreen,,,,,,,,2562
0100,-OPREgE0_k1S0CWVWChz,,0,,False,,,2.3,r,False,False,,,j,T_target,3,,1307,0100,1 (984).jpg,0.0-5.0-10.0-0.11,1,True,True,0,False,True,True,False,True,True,False,1,1,False,,0,,,1,,,,0,,,,images/1 (984).jpg,B,B,,17,17,0,0100,,,initialTest_response,12,12,0,38,11452,0.21,62,image-keyboard-response,1,1,0,"current target, not in next trial",,,,2285
0100,-OPREgE2ntL1sZtPIeva,,0,,,,,2.3,r,False,False,False,,j,T_foil,3,,1307,0100,1 (452).jpg,0.0-19.0-1.0-0.10,1,True,,0,True,,False,False,,True,True,,5,6,4,5,,,,,,,0,,,,images/1 (452).jpg,,Fnn,,,0,0,0100,,,finalTest,,22,12,167,25164,0.44,932,image-keyboard-response,,,,"tested only, in next trial",,,,1775
0100,-OPREgE3s0V9gore8kZv,,,,,,,2.3,r,,,,,,,3,,1307,0100,,0.0-6.0-1.0-0.0,1,,,0,,,,,,,,,,,,,,,,,,,,,,,"<div style=""font-size:60px;"">+</div>",,,,,,,0100,,,fixation,,,,,11882,0.21,82,html-keyboard-response,,,,,,,,2285
0100,-OPREgE56VBKSAZPQDQz,,0,,,,,2.3,r,False,,,,j,T_nontarget,3,,1307,0100,1 (2020).jpg,0.0-19.0-1.0-0.18,1,True,,0,True,,True,False,,False,False,,4,0,4,0,,,,,,,0,,,,images/1 (2020).jpg,,A,,,2,0,0100,,,finalTest,,0,0,175,25265,0.44,940,image-keyboard-response,,,,"studied only, not in trial",,,,1775
0100,-OPREgE6-jNnlhyfSGBa,,0,,,,,2.3,r,False,,,,j,T_foil,3,,1307,0100,1 (911).jpg,0.0-19.0-1.0-0.14,1,True,,0,True,,False,False,,True,False,,10,0,4,10,,,,,,,0,,,,images/1 (911).jpg,,Fn,,,0,0,0100,,,finalTest,,6,0,171,25214,0.44,936,image-keyboard-response,,,,"tested only, not in next trial",,,,1775
0100,-OPREgFXYPSVfqMnwPSK,,,,True,,,2.3,r,,,,,,T_target,3,,1307,0100,1 (1322).jpg,0.0-6.0-2.0-0.0,1,False,True,0,,True,True,False,True,True,True,2,2,3,,0,,,1,,,,,,,,images/1 (1322).jpg,Dn+1,Dn,,1,1,0,0100,,,initial_study,29,29,19,0,11893,0.22,83,image-keyboard-response,1,1,1,"current target, in next trial",,,,2285
0100,-OPREgF_QGovQ1h-bJ6F,,,,True,,,2.3,r,,,,,,T_target,3,,1307,0100,1 (2052).jpg,0.0-8.0-2.0-0.26,1,True,True,0,,True,True,False,True,True,True,4,4,5,9,0,,,1,,,,,,,,images/1 (2052).jpg,Dn+1,Dn,,27,27,0,0100,,,initial_study,3,3,7,418,14688,0.26,261,image-keyboard-response,1,1,1,"current target, in next trial",,,,1775
0100,-OPREgFa7avh0zNDAxVS,,,,,,,2.3,r,,,,,,,3,,1307,0100,,0.0-8.0-5.0-0.4,1,,,0,,,,,,,,4,,,,,,,,,5,,,,,,7,,,7,,,,0100,,55,digitPresentation,,,,,14809,0.26,271,html-keyboard-response,,,,,,,,1775
0100,-OPREgFbJUbfTOnw-Oad,,,,,,,2.3,r,,,,,,,3,,1728,0100,,0.0-5.0-1.0-0.0,0,,,0,,,,,,,,,,,,,,,,,,,,,,,"<div style=""font-size:60px;"">+</div>",,,,,,,0100,,,fixation,,,,,9922,0.18,6,html-keyboard-response,,,,,,,,2562
0100,-OPREgFekaoHhkfJAuV7,,0,,,,,2.3,r,False,,,,j,T_target,3,,1307,0100,1 (2335).jpg,0.0-25.0-1.0-0.11,1,True,,0,True,,True,False,,True,False,,8,0,10,0,,,,,,,0,,,,images/1 (2335).jpg,,B,,,8,0,0100,,,finalTest,,8,0,456,28709,0.50,1221,image-keyboard-response,,,,"current target, not in next trial",,,,1775
0100,-OPREgFhESS77bGDV0Mk,,,,,,,2.3,r,,,,,,,3,,1307,0100,,0.0-8.0-5.0-0.0,1,,,0,,,,,,,,4,,,,,,,,,1,,,,,,5,,,5,,,,0100,,55,digitPresentation,,,,,14760,0.26,267,html-keyboard-response,,,,,,,,1775
0100,-OPREgFiLhescwCjaH3I,,0,,,,,2.3,r,False,,,,j,T_target,3,,1307,0100,1 (1642).jpg,0.0-19.0-1.0-0.24,1,True,,0,True,,True,False,,True,False,,3,0,4,0,,,,,,,0,,,,images/1 (1642).jpg,,B,,,7,0,0100,,,finalTest,,5,0,181,25339,0.44,946,image-keyboard-response,,,,"current target, not in next trial",,,,1775
0100,-OPREgH6DEBKujhuTy60,,0,,,,,2.3,r,False,,,,f,F,3,,1307,0100,1 (1963).jpg,0.0-19.0-1.0-0.36,1,True,,0,False,,False,False,,False,False,,0,0,4,3,,,1,,,,0,,,,images/1 (1963).jpg,,FF,,,0,0,0100,,,finalTest,,0,0,193,25493,0.44,958,image-keyboard-response,,,,final Foil,,,,1775
0100,-OPREgH7IKv8yv8rT3AJ,,,,False,,,2.3,r,,,,,,T_target,3,,1728,0100,1 (2309).jpg,0.0-5.0-2.0-0.7,0,False,True,0,,True,True,False,True,True,False,1,1,0,,0,,,1,,,,,,,,images/1 (2309).jpg,B,B,,8,8,0,0100,,,initial_study,18,18,0,0,10031,0.18,14,image-keyboard-response,1,1,0,"current target, not in next trial",,,,2562
0100,-OPREgH9zAfvJkln8nVH,,0,,False,,,2.3,r,False,False,,,j,T_target,3,,1307,0100,1 (624).jpg,0.0-7.0-10.0-0.27,1,True,True,0,False,True,True,False,True,True,False,3,3,False,,0,,,1,,,,0,,,,images/1 (624).jpg,B,B,,8,8,0,0100,,,initialTest_response,28,28,0,60,14264,0.25,230,image-keyboard-response,1,1,0,"current target, not in next trial",,,,1775
0100,-OPREgHGMqUbxrfABgOx,,,,False,,,2.3,r,,,,,,T_nontarget,3,,1728,0100,1 (1363).jpg,0.0-5.0-2.0-0.27,0,True,True,0,,True,True,False,False,False,False,1,1,0,4,0,,,1,,,,,,,,images/1 (1363).jpg,A,A,,28,28,0,0100,,,initial_study,0,0,0,161,10282,0.19,34,image-keyboard-response,1,0,0,"studied only, not in trial",,,,2562
0100,-OPREgHIV5wZ9mk81OKh,,0,,,,,2.3,r,False,,,,j,T_target,3,,1307,0100,1 (556).jpg,0.0-21.0-1.0-0.45,1,True,,0,True,,True,False,,True,False,,7,0,6,0,,,,,,,0,,,,images/1 (556).jpg,,B,,,2,0,0100,,,finalTest,,19,0,298,26783,0.46,1063,image-keyboard-response,,,,"current target, not in next trial",,,,1775
0100,-OPREgHKaSjRRCfCpAa1,,0,,False,,,2.3,r,False,False,,,f,T_foil,3,,1307,0100,1 (1738).jpg,0.0-7.0-10.0-0.22,1,True,True,0,False,False,False,False,True,True,False,3,3,False,10,0,,,1,,,,0,,,,images/1 (1738).jpg,Fn+1,Fn,,0,0,0,0100,,,initialTest_response,23,23,0,485,14154,0.25,225,image-keyboard-response,0,1,0,"tested only, not in next trial",,,,1775
0100,-OPREgHLOl5N8_jO968t,,0,,False,,,2.3,r,False,False,,,j,T_target,3,,1307,0100,1 (219).jpg,0.0-5.0-10.0-0.14,1,True,True,0,False,True,True,False,True,True,False,1,1,False,,0,,,1,,,,0,,,,images/1 (219).jpg,B,B,,2,2,0,0100,,,initialTest_response,15,15,0,176,11518,0.21,65,image-keyboard-response,1,1,0,"current target, not in next trial",,,,2285
0100,-OPREgIgFjJda8souUDF,,,,False,,,2.3,r,,,,,,T_target,3,,1307,0100,1 (2311).jpg,0.0-8.0-2.0-0.13,1,False,True,0,,True,True,False,True,True,False,4,4,0,,0,,,1,,,,,,,,images/1 (2311).jpg,B,B,,14,14,0,0100,,,initial_study,8,8,0,0,14520,0.26,248,image-keyboard-response,1,1,0,"current target, not in next trial",,,,1775
0100,-OPREgIi6ODhkFZuB0h_,,,,,,,2.3,r,,,,,,,3,,1307,0100,,0.0-8.0-9.0-0.0,1,,,0,,,,,,,,,,,,,,,,,,,,,,,"<div style=""font-size:60px;"">+</div>",,,,,,,0100,,,fixation,,,,,14896,0.27,278,html-keyboard-response,,,,,,,,1775
0100,-OPREgIjkpnBGWcjU29_,,0,,True,,,2.3,r,False,False,False,,f,T_foil,3,,1307,0100,1 (1943).jpg,0.0-9.0-10.0-0.0,1,False,False,0,False,False,True,False,True,True,True,5,4,5,,0,,,2,,,,0,,,,images/1 (1943).jpg,Dn,Dn,,0,12,0,0100,,,initialTest_response,1,12,1,0,16157,0.29,355,image-keyboard-response,1,1,1,"current target, in next trial, from last trial",,,,1775
0100,-OPREgInflljxUV3K2-b,,,,True,,,2.3,r,,,,,,T_nontarget,3,,1307,0100,1 (712).jpg,0.0-8.0-2.0-0.4,1,True,True,0,,True,True,False,False,False,True,4,4,5,8,0,,,1,,,,,,,,images/1 (712).jpg,Cn+1,Cn,,5,5,0,0100,,,initial_study,0,0,28,383,14409,0.26,239,image-keyboard-response,1,0,1,"studied only, in next trial",,,,1775
0100,-OPREgIpor9-NlFa4846,,0,,True,,,2.3,r,False,False,False,,f,T_foil,3,,1307,0100,1 (247).jpg,0.0-8.0-10.0-0.18,1,True,False,0,False,False,False,False,True,False,True,4,3,4,,0,,,2,,,,0,,,,images/1 (247).jpg,Fnn,Fnn,,0,0,0,0100,,,initialTest_response,19,0,19,240,15311,0.27,297,image-keyboard-response,0,1,1,"tested only, in next trial, from last trial",,,,1775
0100,-OPREgIrFcqICq8F3ve9,,0,,False,,,2.3,r,False,False,,,j,T_target,3,,1307,0100,1 (1662).jpg,0.0-8.0-10.0-0.17,1,False,True,0,False,True,True,False,True,True,False,4,4,False,,0,,,1,,,,0,,,,images/1 (1662).jpg,B,B,,25,25,0,0100,,,initialTest_response,18,18,0,0,15289,0.27,296,image-keyboard-response,1,1,0,"current target, not in next trial",,,,1775
0100,-OPREgIssVRc16pVueV9,,,,,,,2.3,r,,,,,,,3,,1307,0100,,0.0-9.0-5.0-0.0,1,,,0,,,,,,,,5,,,,,,,,,1,,,,,,7,,,7,,,,0100,,56,digitPresentation,,,,,16010,0.28,343,html-keyboard-response,,,,,,,,1775
0100,-OPREgIuQ7yumBWv8Hdb,,0,,True,,,2.3,r,False,,False,,f,T_foil,3,,1307,0100,1 (663).jpg,0.0-8.0-10.0-0.19,1,True,False,0,False,False,True,False,True,False,True,4,3,4,,0,,,2,,,,0,,,,images/1 (663).jpg,Cn,Cn,,0,25,0,0100,,,initialTest_response,20,0,20,338,15333,0.27,298,image-keyboard-response,1,0,1,"studied only, in next trial, from last trial",,,,1775
0100,-OPREgKDI_OglchYLPRO,,,,,,,2.3,r,,,,,,,3,,1307,0100,,0.0-9.0-5.0-0.1,1,,,0,,,,,,,,5,,,,,,,,,2,,,,,,5,,,5,,,,0100,,56,digitPresentation,,,,,16023,0.28,344,html-keyboard-response,,,,,,,,1775
0100,-OPREgKFrv-ck6pbE9U4,,0,,,,,2.3,r,False,,False,,j,T_nontarget,3,,1307,0100,1 (282).jpg,0.0-19.0-1.0-0.47,1,True,,0,True,,True,False,,False,True,,6,7,4,0,,,,,,,0,,,,images/1 (282).jpg,,Cn,,,4,0,0100,,,finalTest,,0,17,204,25627,0.44,969,image-keyboard-response,,,,"studied only, in next trial",,,,1775
0100,-OPREgKGfnaI5_XCJo5n,,0,,False,,,2.3,r,False,False,,,f,T_foil,3,,1307,0100,1 (1595).jpg,0.0-8.0-10.0-0.24,1,True,True,0,False,False,False,False,True,True,False,4,4,False,4,0,,,1,,,,0,,,,images/1 (1595).jpg,Fn+1,Fn,,0,0,0,0100,,,initialTest_response,25,25,0,162,15443,0.27,303,image-keyboard-response,0,1,0,"tested only, not in next trial",,,,1775
0100,-OPREgKJtcnkZJlhk9tR,,0,,,,,2.3,r,False,,,,f,F,3,,1307,0100,1 (1866).jpg,0.0-21.0-1.0-0.46,1,True,,0,False,,False,False,,False,False,,0,0,6,5,,,1,,,,0,,,,images/1 (1866).jpg,,FF,,,0,0,0100,,,finalTest,,0,0,299,26794,0.46,1064,image-keyboard-response,,,,final Foil,,,,1775
0100,-OPREgKM_gSg3rSRExMm,,0,,,,,2.3,r,False,,,,j,T_target,3,,1307,0100,1 (941).jpg,0.0-17.0-1.0-0.3,1,True,,0,True,,True,False,,True,False,,4,0,2,0,,,,,,,0,,,,images/1 (941).jpg,,B,,,7,0,0100,,,finalTest,,17,0,64,23853,0.41,829,image-keyboard-response,,,,"current target, not in next trial",,,,1775
0100,-OPREgKNzmiU_pGuGOIT,,0,,,,,2.3,r,False,,,,j,T_target,3,,1307,0100,1 (388).jpg,0.0-17.0-1.0-0.5,1,True,,0,True,,True,False,,True,False,,7,0,2,0,,,,,,,0,,,,images/1 (388).jpg,,B,,,13,0,0100,,,finalTest,,22,0,66,23878,0.41,831,image-keyboard-response,,,,"current target, not in next trial",,,,1775
0100,-OPREgLnpSbl_5YCsIOx,,0,,,,,2.3,r,False,,,,j,T_nontarget,3,,1307,0100,1 (1090).jpg,0.0-20.0-1.0-0.1,1,True,,0,True,,True,False,,False,False,,10,0,5,0,,,,,,,0,,,,images/1 (1090).jpg,,A,,,17,0,0100,,,finalTest,,0,0,206,25652,0.44,971,image-keyboard-response,,,,"studied only, not in trial",,,,1775
0100,-OPREgLsxt-pbyyUGP_B,,0,,False,,,2.3,r,False,False,,,j,T_target,3,,1307,0100,1 (778).jpg,0.0-5.0-10.0-0.16,1,False,True,0,False,True,True,False,True,True,False,1,1,False,,0,,,1,,,,0,,,,images/1 (778).jpg,B,B,,20,20,0,0100,,,initialTest_response,17,17,0,0,11561,0.21,67,image-keyboard-response,1,1,0,"current target, not in next trial",,,,2285
0100,-OPREgLu9SfX7r-8Ze46,,0,,,,,2.3,r,False,,,,f,F,3,,1307,0100,1 (2363).jpg,0.0-17.0-1.0-0.6,1,True,,0,False,,False,False,,False,False,,0,0,2,6,,,1,,,,0,,,,images/1 (2363).jpg,,FF,,,0,0,0100,,,finalTest,,0,0,67,23890,0.42,832,image-keyboard-response,,,,final Foil,,,,1775
0100,-OPREgLwvwRyX2Zn78Cn,,0,,,,,2.3,r,False,,,,j,T_target,3,,1307,0100,1 (610).jpg,0.0-17.0-1.0-0.11,1,True,,0,True,,True,False,,True,False,,5,0,2,0,,,,,,,0,,,,images/1 (610).jpg,,B,,,16,0,0100,,,finalTest,,5,0,72,23951,0.42,837,image-keyboard-response,,,,"current target, not in next trial",,,,1775
0100,-OPREgLymnqrhNCbFqtQ,,0,,,,,2.3,r,False,,,,f,F,3,,1307,0100,1 (654).jpg,0.0-17.0-1.0-0.10,1,True,,0,False,,False,False,,False,False,,0,0,2,10,,,1,,,,0,,,,images/1 (654).jpg,,FF,,,0,0,0100,,,finalTest,,0,0,71,23938,0.42,836,image-keyboard-response,,,,final Foil,,,,1775
0100,-OPREgLzgnF2S8hHXcLf,,0,,,,,2.3,r,False,,,,f,F,3,,1307,0100,1 (315).jpg,0.0-17.0-1.0-0.12,1,True,,0,False,,False,False,,False,False,,0,0,2,7,,,1,,,,0,,,,images/1 (315).jpg,,FF,,,0,0,0100,,,finalTest,,0,0,73,23966,0.42,838,image-keyboard-response,,,,final Foil,,,,1775
0100,-OPREgM-5qievFVWpyMH,,0,,,,,2.3,r,False,,,,j,T_foil,3,,1307,0100,1 (73).jpg,0.0-17.0-1.0-0.13,1,True,,0,True,,False,False,,True,False,,1,False,2,1,,,,,,,0,,,,images/1 (73).jpg,,Fn,,,0,0,0100,,,finalTest,,30,0,74,23980,0.42,839,image-keyboard-response,,,,"tested only, not in next trial",,,,1775
0100,-OPREgNNpDQywk6iG5kX,,,,,,,2.3,r,,,,,,,3,,1307,0100,,0.0-8.0-5.0-0.2,1,,,0,,,,,,,,4,,,,,,,,,3,,,,,,6,,,6,,,,0100,,55,digitPresentation,,,,,14785,0.26,269,html-keyboard-response,,,,,,,,1775
0100,-OPREgNPYEDqLh1WtTLp,,,,False,,,2.3,r,,,,,,T_target,3,,1728,0100,1 (778).jpg,0.0-5.0-2.0-0.19,0,False,True,0,,True,True,False,True,True,False,1,1,0,,0,,,1,,,,,,,,images/1 (778).jpg,B,B,,20,20,0,0100,,,initial_study,17,17,0,0,10182,0.19,26,image-keyboard-response,1,1,0,"current target, not in next trial",,,,2562
0100,-OPREgNQetyyEbu6rqx_,,0,,False,,,2.3,r,False,False,,,j,T_target,3,,1307,0100,1 (2380).jpg,0.0-5.0-10.0-0.20,1,False,True,0,False,True,True,False,True,True,False,1,1,False,,0,,,1,,,,0,,,,images/1 (2380).jpg,B,B,,7,7,0,0100,,,initialTest_response,21,21,0,0,11647,0.21,71,image-keyboard-response,1,1,0,"current target, not in next trial",,,,2285
0100,-OPREgNRI2wakdsfZ5Fh,,,,False,,,2.3,r,,,,,,T_nontarget,3,,1728,0100,1 (1933).jpg,0.0-5.0-2.0-0.22,0,True,True,0,,True,True,False,False,False,False,1,1,0,8,0,,,1,,,,,,,,images/1 (1933).jpg,A,A,,23,23,0,0100,,,initial_study,0,0,0,350,10220,0.19,29,image-keyboard-response,1,0,0,"studied only, not in trial",,,,2562
0100,-OPREgNSGVTcCkOawocA,,0,,,,,2.3,r,False,,,,j,T_target,3,,1307,0100,1 (1922).jpg,0.0-17.0-1.0-0.14,1,True,,0,True,,True,False,,True,False,,9,0,2,0,,,,,,,0,,,,images/1 (1922).jpg,,B,,,27,0,0100,,,finalTest,,19,0,75,23992,0.42,840,image-keyboard-response,,,,"current target, not in next trial",,,,1775
0100,-OPREgNTXmgZLWb595MF,,0,,False,,,2.3,r,False,False,,,f,T_foil,3,,1307,0100,1 (858).jpg,0.0-5.0-10.0-0.21,1,True,True,0,False,False,False,False,True,True,False,1,1,False,10,0,,,1,,,,0,,,,images/1 (858).jpg,Fn+1,Fn,,0,0,0,0100,,,initialTest_response,22,22,0,449,11668,0.21,72,image-keyboard-response,0,1,0,"tested only, not in next trial",,,,2285
0100,-OPREgNVAt6wUDvxVemK,,0,,,,,2.3,r,False,False,False,,j,T_foil,3,,1307,0100,1 (2252).jpg,0.0-17.0-1.0-0.16,1,True,,0,True,,False,False,,True,True,,7,8,2,7,,,,,,,0,,,,images/1 (2252).jpg,,Fnn,,,0,0,0100,,,finalTest,,24,23,77,24014,0.42,842,image-keyboard-response,,,,"tested only, in next trial",,,,1775
0100,-OPREgNWqcJZcrgQdHAa,,0,,,,,2.3,r,False,,,,j,T_target,3,,1307,0100,1 (1859).jpg,0.0-17.0-1.0-0.18,1,True,,0,True,,True,False,,True,False,,1,0,2,0,,,,,,,0,,,,images/1 (1859).jpg,,B,,,13,0,0100,,,finalTest,,6,0,79,24042,0.42,844,image-keyboard-response,,,,"current target, not in next trial",,,,1775
0100,-OPREgOuKRhl8WhmGyQE,,,,False,,,2.3,r,,,,,,T_target,3,,1728,0100,1 (1599).jpg,0.0-5.0-2.0-0.26,0,True,True,0,,True,True,False,True,True,False,1,1,0,9,0,,,1,,,,,,,,images/1 (1599).jpg,B,B,,27,27,0,0100,,,initial_study,27,27,0,420,10270,0.19,33,image-keyboard-response,1,1,0,"current target, not in next trial",,,,2562
0100,-OPREgOvtIUyv8IJZ20O,,0,,,,,2.3,r,False,,,,f,F,3,,1307,0100,1 (2339).jpg,0.0-18.0-1.0-0.10,1,True,,0,False,,False,False,,False,False,,0,0,3,10,,,1,,,,0,,,,images/1 (2339).jpg,,FF,,,0,0,0100,,,finalTest,,0,0,119,24545,0.43,884,image-keyboard-response,,,,final Foil,,,,1775
0100,-OPREgOx0e3MI0GPFvjk,,0,,,,,2.3,r,False,,,,f,F,3,,1307,0100,1 (364).jpg,0.0-18.0-1.0-0.11,1,True,,0,False,,False,False,,False,False,,0,0,3,9,,,1,,,,0,,,,images/1 (364).jpg,,FF,,,0,0,0100,,,finalTest,,0,0,120,24574,0.43,885,image-keyboard-response,,,,final Foil,,,,1775
0100,-OPREgOyJel2SDbdBBsp,,0,,,,,2.3,r,False,,,,f,F,3,,1307,0100,1 (1057).jpg,0.0-18.0-1.0-0.9,1,True,,0,False,,False,False,,False,False,,0,0,3,4,,,1,,,,0,,,,images/1 (1057).jpg,,FF,,,0,0,0100,,,finalTest,,0,0,118,24533,0.43,883,image-keyboard-response,,,,final Foil,,,,1775
0100,-OPREgOzGSXcKcr1A-e7,,0,,,,,2.3,r,False,,,,j,T_foil,3,,1307,0100,1 (344).jpg,0.0-18.0-1.0-0.7,1,True,,0,True,,False,False,,True,False,,5,False,3,5,,,,,,,0,,,,images/1 (344).jpg,,Fn,,,0,0,0100,,,finalTest,,27,0,116,24511,0.43,881,image-keyboard-response,,,,"tested only, not in next trial",,,,1775
0100,-OPREgP0f9-lN2_pOU6d,,0,,,,,2.3,r,False,,,,f,F,3,,1307,0100,1 (380).jpg,0.0-18.0-1.0-0.21,1,True,,0,False,,False,False,,False,False,,0,0,3,6,,,1,,,,0,,,,images/1 (380).jpg,,FF,,,0,0,0100,,,finalTest,,0,0,130,24702,0.43,895,image-keyboard-response,,,,final Foil,,,,1775
0100,-OPREgP1gX7wg3un-3pH,,0,,,,,2.3,r,False,False,False,,j,T_target,3,,1307,0100,1 (2092).JPG,0.0-17.0-1.0-0.15,1,True,,0,True,,True,False,,True,True,,2,3,2,0,,,,,,,0,,,,images/1 (2092).JPG,,Dn,,,12,0,0100,,,finalTest,,11,3,76,24003,0.42,841,image-keyboard-response,,,,"current target, in next trial",,,,1775
0100,-OPREgP3nhlNgckhlN_Q,,0,,,,,2.3,r,False,,False,,j,T_nontarget,3,,1307,0100,1 (1436).jpg,0.0-17.0-1.0-0.19,1,True,,0,True,,True,False,,False,False,,9,0,2,0,,,,,,,0,,,,images/1 (1436).jpg,,Cn,,,8,0,0100,,,finalTest,,0,0,80,24055,0.42,845,image-keyboard-response,,,,"studied only, in next trial",,,,1775
0100,-OPREgP4tJW77gbSHD9u,,0,,,,,2.3,r,False,,,,j,T_foil,3,,1307,0100,1 (1558).jpg,0.0-17.0-1.0-0.20,1,True,,0,True,,False,False,,True,False,,1,False,2,1,,,,,,,0,,,,images/1 (1558).jpg,,Fn,,,0,0,0100,,,finalTest,,14,0,81,24066,0.42,846,image-keyboard-response,,,,"tested only, not in next trial",,,,1775
0100,-OPREgP5RC_a2XMd8Hsz,,,,,,,2.3,r,,,,,,,3,,1306,0100,,0.0-1.0,0,,,0,,,,,,,,,,,,,,,,,,,,{'Q0': '0100'},,1564,,,,,,,,0100,,,enterid,,,,,2037,0.05,1,survey-text,,,,,,,,1774
0100,-OPREgP6E7qKjPwzkrgQ,,0,,False,,,2.3,r,False,False,,,j,T_target,3,,1307,0100,1 (1859).jpg,0.0-5.0-10.0-0.5,1,True,True,0,False,True,True,False,True,True,False,1,1,False,,0,,,1,,,,0,,,,images/1 (1859).jpg,B,B,,13,13,0,0100,,,initialTest_response,6,6,0,79,11315,0.21,56,image-keyboard-response,1,1,0,"current target, not in next trial",,,,2285
0100,-OPREgQUsUkLOj3derGN,,0,,,,,2.3,r,False,,,,j,T_foil,3,,1307,0100,1 (1148).jpg,0.0-18.0-1.0-0.25,1,True,,0,True,,False,False,,True,False,,6,False,3,6,,,,,,,0,,,,images/1 (1148).jpg,,Fn,,,0,0,0100,,,finalTest,,22,0,134,24753,0.43,899,image-keyboard-response,,,,"tested only, not in next trial",,,,1775
0100,-OPREgQVGjQNFrAOQbR6,,0,,,,,2.3,r,False,,,,j,T_target,3,,1307,0100,1 (1147).jpg,0.0-18.0-1.0-0.24,1,True,,0,True,,True,False,,True,False,,9,0,3,0,,,,,,,0,,,,images/1 (1147).jpg,,B,,,17,0,0100,,,finalTest,,17,0,133,24740,0.43,898,image-keyboard-response,,,,"current target, not in next trial",,,,1775
0100,-OPREgQWF7Sr1CMyZM7J,,0,,,,,2.3,r,False,,,,f,F,3,,1307,0100,1 (1550).jpg,0.0-18.0-1.0-0.8,1,True,,0,False,,False,False,,False,False,,0,0,3,6,,,1,,,,0,,,,images/1 (1550).jpg,,FF,,,0,0,0100,,,finalTest,,0,0,117,24522,0.43,882,image-keyboard-response,,,,final Foil,,,,1775
0100,-OPREgQXDW-A_HLitPtL,,0,,,,,2.3,r,False,,,,j,T_nontarget,3,,1307,0100,1 (245).jpg,0.0-18.0-1.0-0.20,1,True,,0,True,,True,False,,False,False,,9,0,3,0,,,,,,,0,,,,images/1 (245).jpg,,A,,,3,0,0100,,,finalTest,,0,0,129,24688,0.43,894,image-keyboard-response,,,,"studied only, not in trial",,,,1775
0100,-OPREgQZYQhwbzaZe3rD,,0,,,,,2.3,r,False,False,False,,j,T_foil,3,,1307,0100,1 (311).jpg,0.0-17.0-1.0-0.23,1,True,,0,True,,False,False,,True,True,,6,7,2,6,,,,,,,0,,,,images/1 (311).jpg,,Fnn,,,0,0,0100,,,finalTest,,10,8,84,24104,0.42,849,image-keyboard-response,,,,"tested only, in next trial",,,,1775
0100,-OPREgQ_lLPl4cLJIXTo,,,,False,,,2.3,r,,,,,,T_target,3,,1307,0100,1 (2063).jpg,0.0-6.0-2.0-0.18,1,True,True,0,,True,True,False,True,True,False,2,2,0,4,0,,,1,,,,,,,,images/1 (2063).jpg,B,B,,19,19,0,0100,,,initial_study,17,17,0,189,12086,0.22,101,image-keyboard-response,1,1,0,"current target, not in next trial",,,,1775
0100,-OPREgQbvFywpebUJclH,,0,,,,,2.3,r,False,,,,j,T_nontarget,3,,1307,0100,1 (996).jpg,0.0-17.0-1.0-0.24,1,True,,0,True,,True,False,,False,False,,2,0,2,0,,,,,,,0,,,,images/1 (996).jpg,,A,,,4,0,0100,,,finalTest,,0,0,85,24118,0.42,850,image-keyboard-response,,,,"studied only, not in trial",,,,1775
0100,-OPREgQcv-8BVKjUZVej,,,,,,,2.3,r,,,,,,,3,,1307,0100,,0.0-5.0-4.0-0.0,1,,,0,,,,,,,,,,,,,,,,,,,,,,,"<div style=""font-size:60px;"">+</div>",,,,,,,0100,,,fixation,,,,,10765,0.20,38,html-keyboard-response,,,,,,,,2285
0100,-OPREgQdjA7BifuOfBZZ,,0,,,,,2.3,r,False,,,,f,F,3,,1307,0100,1 (199).jpg,0.0-17.0-1.0-0.31,1,True,,0,False,,False,False,,False,False,,0,0,2,5,,,1,,,,0,,,,images/1 (199).jpg,,FF,,,0,0,0100,,,finalTest,,0,0,92,24214,0.42,857,image-keyboard-response,,,,final Foil,,,,1775
0100,-OPREgS2vTWxqmplvRzB,,0,,,,,2.3,r,False,,,,f,F,3,,1307,0100,1 (2009).jpg,0.0-17.0-1.0-0.25,1,True,,0,False,,False,False,,False,False,,0,0,2,5,,,1,,,,0,,,,images/1 (2009).jpg,,FF,,,0,0,0100,,,finalTest,,0,0,86,24130,0.42,851,image-keyboard-response,,,,final Foil,,,,1775
0100,-OPREgS4Bo7d_Rf7PA3P,,0,,,,,2.3,r,False,,,,f,F,3,,1307,0100,1 (780).jpg,0.0-20.0-1.0-0.19,1,True,,0,False,,False,False,,False,False,,0,0,5,5,,,1,,,,0,,,,images/1 (780).jpg,,FF,,,0,0,0100,,,finalTest,,0,0,224,25870,0.45,989,image-keyboard-response,,,,final Foil,,,,1775
0100,-OPREgS4Bo7d_Rf7PA3Q,,,,False,,,2.3,r,,,,,,T_target,3,,1307,0100,1 (274).jpg,0.0-14.0-2.0-0.11,1,True,True,0,,True,True,False,True,True,False,10,10,0,2,0,,,1,,,,,,,,images/1 (274).jpg,B,B,,12,12,0,0100,,,initial_study,19,19,0,107,21946,0.38,702,image-keyboard-response,1,1,0,"current target, not in next trial",,,,1775
0100,-OPREgS76Lj7f00mo4vT,,,,,,,2.3,r,,,,,,,3,,1307,0100,,0.0-5.0-5.0-0.2,1,,,0,,,,,,,,1,,,,,,,,,3,,,,,,4,,,4,,,,0100,,53,digitPresentation,,,,,10854,0.20,41,html-keyboard-response,,,,,,,,2285
0100,-OPREgS8bS06wjeSadED,,0,,False,,,2.3,r,False,False,,,f,T_foil,3,,1307,0100,1 (1858).jpg,0.0-5.0-10.0-0.10,1,True,True,0,False,False,False,False,True,True,False,1,1,False,7,0,,,1,,,,0,,,,images/1 (1858).jpg,Fn+1,Fn,,0,0,0,0100,,,initialTest_response,11,11,0,318,11431,0.21,61,image-keyboard-response,0,1,0,"tested only, not in next trial",,,,2285
0100,-OPREgS9wVUYCC3sPr_C,,0,,,,,2.3,r,False,,,,f,F,3,,1307,0100,1 (1862).jpg,0.0-20.0-1.0-0.20,1,True,,0,False,,False,False,,False,False,,0,0,5,2,,,1,,,,0,,,,images/1 (1862).jpg,,FF,,,0,0,0100,,,finalTest,,0,0,225,25882,0.45,990,image-keyboard-response,,,,final Foil,,,,1775
0100,-OPREgSC29ryUzv_yqpG,,0,,,,,2.3,r,False,,,,f,F,3,,1307,0100,1 (2274).jpg,0.0-18.0-1.0-0.38,1,True,,0,False,,False,False,,False,False,,0,0,3,0,,,1,,,,0,,,,images/1 (2274).jpg,,FF,,,0,0,0100,,,finalTest,,0,0,147,24924,0.43,912,image-keyboard-response,,,,final Foil,,,,1775
0100,-OPREgSC29ryUzv_yqpH,,0,,,,,2.3,r,False,,,,f,F,3,,1307,0100,1 (1805).jpg,0.0-18.0-1.0-0.37,1,True,,0,False,,False,False,,False,False,,0,0,3,4,,,1,,,,0,,,,images/1 (1805).jpg,,FF,,,0,0,0100,,,finalTest,,0,0,146,24910,0.43,911,image-keyboard-response,,,,final Foil,,,,1775
0100,-OPREgTeq5M7Bylwkx49,,,,True,,,2.3,r,,,,,,T_target,3,,1307,0100,1 (2147).jpg,0.0-8.0-2.0-0.29,1,True,True,0,,True,True,False,True,True,True,4,4,5,7,0,,,1,,,,,,,,images/1 (2147).jpg,Dn+1,Dn,,30,30,0,0100,,,initial_study,21,21,8,326,14725,0.26,264,image-keyboard-response,1,1,1,"current target, in next trial",,,,1775
0100,-OPREgTfXH9MGQvzlEb3,,,,False,,,2.3,r,,,,,,T_target,3,,1307,0100,1 (1662).jpg,0.0-8.0-2.0-0.24,1,False,True,0,,True,True,False,True,True,False,4,4,0,,0,,,1,,,,,,,,images/1 (1662).jpg,B,B,,25,25,0,0100,,,initial_study,18,18,0,0,14662,0.26,259,image-keyboard-response,1,1,0,"current target, not in next trial",,,,1775
0100,-OPREgTgoCuQi5uy0CBN,,0,,,,,2.3,r,False,,,,j,T_nontarget,3,,1307,0100,1 (954).jpg,0.0-17.0-1.0-0.32,1,True,,0,True,,True,False,,False,False,,6,0,2,0,,,,,,,0,,,,images/1 (954).jpg,,A,,,19,0,0100,,,finalTest,,0,0,93,24225,0.42,858,image-keyboard-response,,,,"studied only, not in trial",,,,1775
0100,-OPREgTiDtb-qWFEU8Si,,,,False,,,2.3,r,,,,,,T_nontarget,3,,1307,0100,1 (2047).jpg,0.0-6.0-2.0-0.2,1,True,True,0,,True,True,False,False,False,False,2,2,0,2,0,,,1,,,,,,,,images/1 (2047).jpg,A,A,,3,3,0,0100,,,initial_study,0,0,0,101,11914,0.22,85,image-keyboard-response,1,0,0,"studied only, not in trial",,,,2285
0100,-OPREgTjYbavuDGHH-q0,,,,False,,,2.3,r,,,,,,T_target,3,,1307,0100,1 (974).jpg,0.0-12.0-2.0-0.0,1,False,True,0,,True,True,False,True,True,False,8,8,0,,0,,,1,,,,,,,,images/1 (974).jpg,B,B,,1,1,0,0100,,,initial_study,29,29,0,0,19325,0.34,539,image-keyboard-response,1,1,0,"current target, not in next trial",,,,1775
0100,-OPREgTkA3vXGvmRB2JH,,0,,,,,2.3,r,False,,,,j,T_nontarget,3,,1307,0100,1 (2294).jpg,0.0-22.0-1.0-0.5,1,True,,0,True,,True,False,,False,False,,4,0,7,0,,,,,,,0,,,,images/1 (2294).jpg,,A,,,10,0,0100,,,finalTest,,0,0,306,26878,0.46,1071,image-keyboard-response,,,,"studied only, not in trial",,,,1775
0100,-OPREgTlKz3aO4IjJIuR,,,,False,,,2.3,r,,,,,,T_target,3,,1307,0100,1 (1158).jpg,0.0-8.0-2.0-0.15,1,True,True,0,,True,True,False,True,True,False,4,4,0,10,0,,,1,,,,,,,,images/1 (1158).jpg,B,B,,16,16,0,0100,,,initial_study,4,4,0,457,14544,0.26,250,image-keyboard-response,1,1,0,"current target, not in next trial",,,,1775
0100,-OPREgTm54j8GHzGXPUb,,0,,,,,2.3,r,False,,,,f,F,3,,1307,0100,1 (2111).jpg,0.0-22.0-1.0-0.6,1,True,,0,False,,False,False,,False,False,,0,0,7,7,,,1,,,,0,,,,images/1 (2111).jpg,,FF,,,0,0,0100,,,finalTest,,0,0,307,26890,0.47,1072,image-keyboard-response,,,,final Foil,,,,1775
0100,-OPREgTnK9PBUlTEsvY9,,,,False,,,2.3,r,,,,,,T_nontarget,3,,1307,0100,1 (304).jpg,0.0-8.0-2.0-0.16,1,False,True,0,,True,True,False,False,False,False,4,4,0,,0,,,1,,,,,,,,images/1 (304).jpg,A,A,,17,17,0,0100,,,initial_study,0,0,0,0,14557,0.26,251,image-keyboard-response,1,0,0,"studied only, not in trial",,,,1775
0100,-OPREgV8BOUuNVIkIjUk,,,,False,,,2.3,r,,,,,,T_nontarget,3,,1307,0100,1 (2068).jpg,0.0-8.0-2.0-0.21,1,True,True,0,,True,True,False,False,False,False,4,4,0,8,0,,,1,,,,,,,,images/1 (2068).jpg,A,A,,22,22,0,0100,,,initial_study,0,0,0,387,14625,0.26,256,image-keyboard-response,1,0,0,"studied only, not in trial",,,,1775
0100,-OPREgVARw8fFe4UBex4,,0,,,,,2.3,r,False,,,,j,T_nontarget,3,,1307,0100,1 (1760).jpg,0.0-18.0-1.0-0.40,1,True,,0,True,,True,False,,False,False,,6,0,3,0,,,,,,,0,,,,images/1 (1760).jpg,,A,,,28,0,0100,,,finalTest,,0,0,149,24949,0.43,914,image-keyboard-response,,,,"studied only, not in trial",,,,1775
0100,-OPREgVBXLF1v-BwNOUw,,0,,,,,2.3,r,False,,,,j,T_nontarget,3,,1307,0100,1 (788).jpg,0.0-18.0-1.0-0.45,1,True,,0,True,,True,False,,False,False,,6,0,3,0,,,,,,,0,,,,images/1 (788).jpg,,A,,,15,0,0100,,,finalTest,,0,0,154,25011,0.43,919,image-keyboard-response,,,,"studied only, not in trial",,,,1775
0100,-OPREgVEr7fKkmnlLMjO,,0,,,,,2.3,r,False,,,,f,F,3,,1307,0100,1 (667).jpg,0.0-22.0-1.0-0.7,1,True,,0,False,,False,False,,False,False,,0,0,7,5,,,1,,,,0,,,,images/1 (667).jpg,,FF,,,0,0,0100,,,finalTest,,0,0,308,26903,0.47,1073,image-keyboard-response,,,,final Foil,,,,1775
0100,-OPREgVGV619QnlwNdow,,0,,False,,,2.3,r,False,False,,,j,T_target,3,,1307,0100,1 (1950).jpg,0.0-8.0-10.0-0.25,1,True,True,0,False,True,True,False,True,True,False,4,4,False,,0,,,1,,,,0,,,,images/1 (1950).jpg,B,B,,15,15,0,0100,,,initialTest_response,26,26,0,42,15466,0.27,304,image-keyboard-response,1,1,0,"current target, not in next trial",,,,1775
0100,-OPREgVHkdVSRatre0if,,0,,,,,2.3,r,False,,,,f,F,3,,1307,0100,1 (181).jpg,0.0-20.0-1.0-0.0,1,True,,0,False,,False,False,,False,False,,0,0,5,1,,,1,,,,0,,,,images/1 (181).jpg,,FF,,,0,0,0100,,,finalTest,,0,0,205,25640,0.44,970,image-keyboard-response,,,,final Foil,,,,1775
0100,-OPREgVHkdVSRatre0ig,,0,,,,,2.3,r,False,,,,f,F,3,,1307,0100,1 (164).jpg,0.0-20.0-1.0-0.4,1,True,,0,False,,False,False,,False,False,,0,0,5,9,,,1,,,,0,,,,images/1 (164).jpg,,FF,,,0,0,0100,,,finalTest,,0,0,209,25690,0.45,974,image-keyboard-response,,,,final Foil,,,,1775
0100,-OPREgVJZlf0rrbqofZB,,,,False,,,2.3,r,,,,,,T_nontarget,3,,1307,0100,1 (2336).jpg,0.0-6.0-2.0-0.5,1,False,True,0,,True,True,False,False,False,False,2,2,0,,0,,,1,,,,,,,,images/1 (2336).jpg,A,A,,6,6,0,0100,,,initial_study,0,0,0,0,11946,0.22,88,image-keyboard-response,1,0,0,"studied only, not in trial",,,,1775
0100,-OPREgVKKI0HuRscGh2z,,,,,,,2.3,r,,,,,,,3,,1307,0100,,0.0-5.0-5.0-0.6,1,,,0,,,,,,,,1,,,,,,,,,7,,,,,,7,,,7,,,,0100,,53,digitPresentation,,,,,10922,0.20,45,html-keyboard-response,,,,,,,,2285
0100,-OPREgVKKI0HuRscGh3-,,0,,True,,,2.3,r,False,False,False,,f,T_foil,3,,1307,0100,1 (1656).jpg,0.0-14.0-10.0-0.19,1,True,False,0,False,False,True,False,True,True,False,10,9,0,,0,,,2,,,,0,,,,images/1 (1656).jpg,Dn,Dn,,0,25,0,0100,,,initialTest_response,20,25,0,421,22788,0.40,754,image-keyboard-response,1,1,1,"current target, in next trial, from last trial",,,,1775
0100,-OPREgWphVGfHOftri33,,,,False,,,2.3,r,,,,,,T_target,3,,1307,0100,1 (487).jpg,0.0-6.0-2.0-0.4,1,True,True,0,,True,True,False,True,True,False,2,2,0,2,0,,,1,,,,,,,,images/1 (487).jpg,B,B,,5,5,0,0100,,,initial_study,1,1,0,94,11935,0.22,87,image-keyboard-response,1,1,0,"current target, not in next trial",,,,1775
0100,-OPREgWrzg0nFifV8xE6,,,,,,,2.3,r,,,,,,,3,,1307,0100,,0.0-5.0-5.0-0.7,1,,,0,,,,,,,,1,,,,,,,,,8,,,,,,7,,,7,,,,0100,,53,digitPresentation,,,,,10942,0.20,46,html-keyboard-response,,,,,,,,2285
0100,-OPREgWsu0xepUBfom1p,,,,,,,2.3,r,,,,,,,3,,1307,0100,,0.0-8.0-5.0-0.6,1,,,0,,,,,,,,4,,,,,,,,,7,,,,,,9,,,9,,,,0100,,55,digitPresentation,,,,,14832,0.26,273,html-keyboard-response,,,,,,,,1775
0100,-OPREgWuLVUSxzw2YMKy,,0,,,,,2.3,r,False,,,,j,T_nontarget,3,,1307,0100,1 (719).jpg,0.0-20.0-1.0-0.5,1,True,,0,True,,True,False,,False,False,,9,0,5,0,,,,,,,0,,,,images/1 (719).jpg,,A,,,5,0,0100,,,finalTest,,0,0,210,25702,0.45,975,image-keyboard-response,,,,"studied only, not in trial",,,,1775
0100,-OPREgWvaYAkYjk_asFH,,0,,False,,,2.3,r,False,False,,,j,T_target,3,,1307,0100,1 (1158).jpg,0.0-8.0-10.0-0.3,1,True,True,0,False,True,True,False,True,True,False,4,4,False,,0,,,1,,,,0,,,,images/1 (1158).jpg,B,B,,16,16,0,0100,,,initialTest_response,4,4,0,457,14975,0.27,282,image-keyboard-response,1,1,0,"current target, not in next trial",,,,1775
0100,-OPREgWw0OP73R1qJD5A,,,,,,,2.3,r,,,,,,,3,,1307,0100,,0.0-14.0-5.0-0.3,1,,,0,,,,,,,,10,,,,,,,,,4,,,,,,8,,,8,,,,0100,,51,digitPresentation,,,,,22272,0.39,726,html-keyboard-response,,,,,,,,1775
0100,-OPREgYHSu7udJ3pAp5m,,,,,,,2.3,r,,,,,,,3,,1307,0100,,0.0-6.0-7.0-0.0,1,,,0,,,,,,,,,,,,,,,,,,,,,,,<p background:white>INCORRECT!</p>,,,,,,,0100,,,promptfeedback,,,,,12368,0.22,124,html-keyboard-response,,,,,,,,1775
0100,-OPREgYJw3J6tc8i7_5n,,,,,,,2.3,r,,,,,,,3,,1307,0100,,0.0-12.0-5.0-0.0,1,,,0,,,,,,,,8,,,,,,,,,1,,,,,,9,,,9,,,,0100,,53,digitPresentation,,,,,19721,0.35,571,html-keyboard-response,,,,,,,,1775
0100,-OPREgYLbj4WcSkHKYPE,,,,,,,2.3,r,,,,,,,3,,1307,0100,,0.0-12.0-7.0-0.0,1,,,0,,,,,,,,,,,,,,,,,,,,,,,<p background:white>INCORRECT!</p>,,,,,,,0100,,,promptfeedback,,,,,19830,0.35,580,html-keyboard-response,,,,,,,,1775
0100,-OPREgYMb6Xq2Djy6Icd,,,,False,,,2.3,r,,,,,,T_nontarget,3,,1307,0100,1 (53).jpg,0.0-12.0-2.0-0.24,1,True,True,0,,True,True,False,False,False,False,8,8,0,1,0,,,1,,,,,,,,images/1 (53).jpg,A,A,,25,25,0,0100,,,initial_study,0,0,0,31,19624,0.34,563,image-keyboard-response,1,0,0,"studied only, not in trial",,,,1775
0100,-OPREgYPmBXDS7sytePX,,0,,True,,,2.3,r,False,,False,,f,T_foil,3,,1307,0100,1 (327).jpg,0.0-14.0-10.0-0.22,1,False,False,0,False,False,True,False,True,False,False,10,9,0,,0,,,2,,,,0,,,,images/1 (327).jpg,Cn,Cn,,0,16,0,0100,,,initialTest_response,23,0,0,0,22852,0.40,757,image-keyboard-response,1,0,1,"studied only, in next trial, from last trial",,,,1775
0100,-OPREgYQPxlZLOz2JxQZ,,0,,True,,,2.3,r,False,,False,,f,T_foil,3,,1307,0100,1 (1900).jpg,0.0-8.0-10.0-0.0,1,True,False,0,False,False,True,False,True,False,True,4,3,4,,0,,,2,,,,0,,,,images/1 (1900).jpg,Cn,Cn,,0,10,0,0100,,,initialTest_response,1,0,1,30,14909,0.27,279,image-keyboard-response,1,0,1,"studied only, in next trial, from last trial",,,,1775
0100,-OPREgYR_kF3oeJs8vqa,,0,,,,,2.3,r,False,False,False,,j,T_foil,3,,1307,0100,1 (1340).jpg,0.0-20.0-1.0-0.12,1,True,,0,True,,False,False,,True,True,,5,6,5,5,,,,,,,0,,,,images/1 (1340).jpg,,Fnn,,,0,0,0100,,,finalTest,,18,2,217,25784,0.45,982,image-keyboard-response,,,,"tested only, in next trial",,,,1775
0100,-OPREgYSrNAHd6v13irt,,,,,,,2.3,r,,,,,,,3,,1307,0100,,0.0-14.0-5.0-0.6,1,,,0,,,,,,,,10,,,,,,,,,7,,,,,,5,,,5,,,,0100,,51,digitPresentation,,,,,22308,0.39,729,html-keyboard-response,,,,,,,,1775
0100,-OPREgYUSNfoLlOfz5m3,,,,,,,2.3,r,,,,,,,3,,1307,0100,,0.0-14.0-8.0-0.0,1,,,0,,,,,,,,,,,,,,,,,,,,,,,Now judge if you have seen this pictures from the list you JUST studied before the digits,,,,,,,0100,,,prompt,,,,,22354,0.39,733,html-keyboard-response,,,,,,,,1775
0100,-OPREgZqB4k5C7Ph-vOH,,,,False,,,2.3,r,,,,,,T_target,3,,1307,0100,1 (542).jpg,0.0-12.0-2.0-0.3,1,True,True,0,,True,True,False,True,True,False,8,8,0,9,0,,,1,,,,,,,,images/1 (542).jpg,B,B,,4,4,0,0100,,,initial_study,26,26,0,423,19360,0.34,542,image-keyboard-response,1,1,0,"current target, not in next trial",,,,1775
0100,-OPREgZsp37XBZsc-lCw,,,,,,,2.3,r,,,,,,,3,,1307,0100,,0.0-12.0-3.0-0.0,1,,,0,,,,,,,,,,,,,,,,,,,,,,,Summing up the digits as they appear,,,,,,,0100,,,prompt,,,,,19696,0.35,569,html-keyboard-response,,,,,,,,1775
0100,-OPREgZthDsqMm2Ry2JU,,0,,,,,2.3,r,False,,,,j,T_foil,3,,1307,0100,1 (1932).jpg,0.0-22.0-1.0-0.47,1,True,,0,True,,False,False,,True,False,,9,False,7,9,,,,,,,0,,,,images/1 (1932).jpg,,Fn,,,0,0,0100,,,finalTest,,28,0,348,27391,0.47,1113,image-keyboard-response,,,,"tested only, not in next trial",,,,1775
0100,-OPREgZvfRbyjMT3Mr1o,,0,,,,,2.3,r,False,,,,f,F,3,,1307,0100,1 (1539).jpg,0.0-22.0-1.0-0.46,1,True,,0,False,,False,False,,False,False,,0,0,7,1,,,1,,,,0,,,,images/1 (1539).jpg,,FF,,,0,0,0100,,,finalTest,,0,0,347,27376,0.47,1112,image-keyboard-response,,,,final Foil,,,,1775
0100,-OPREgZw1xsECm8Nsqql,,0,,,,,2.3,r,False,,,,f,F,3,,1307,0100,1 (1502).jpg,0.0-22.0-1.0-0.43,1,True,,0,False,,False,False,,False,False,,0,0,7,2,,,1,,,,0,,,,images/1 (1502).jpg,,FF,,,0,0,0100,,,finalTest,,0,0,344,27335,0.47,1109,image-keyboard-response,,,,final Foil,,,,1775
0100,-OPREgZxSWAKQkPXKe0N,,,,False,,,2.3,r,,,,,,T_target,3,,1307,0100,1 (1762).jpg,0.0-14.0-2.0-0.23,1,True,True,0,,True,True,False,True,True,False,10,10,0,1,0,,,1,,,,,,,,images/1 (1762).jpg,B,B,,24,24,0,0100,,,initial_study,1,1,0,24,22101,0.39,714,image-keyboard-response,1,1,0,"current target, not in next trial",,,,1775
0100,-OPREgZygt0_HJI6RkUy,,0,,,,,2.3,r,False,,,,f,F,3,,1307,0100,1 (2232).jpg,0.0-22.0-1.0-0.44,1,True,,0,False,,False,False,,False,False,,0,0,7,7,,,1,,,,0,,,,images/1 (2232).jpg,,FF,,,0,0,0100,,,finalTest,,0,0,345,27348,0.47,1110,image-keyboard-response,,,,final Foil,,,,1775
0100,-OPREgZzgrFv_ICArsH-,,0,,,,,2.3,r,False,,,,j,T_nontarget,3,,1307,0100,1 (1486).jpg,0.0-16.0-1.0-0.12,1,True,,0,True,,True,False,,False,False,,3,0,1,0,,,,,,,0,,,,images/1 (1486).jpg,,A,,,5,0,0100,,,finalTest,,0,0,13,23189,0.40,778,image-keyboard-response,,,,"studied only, not in trial",,,,1775
0100,-OPREg_-BaM0h4ibB7Jz,,0,,True,,,2.3,r,False,False,,,j,T_target,3,,1307,0100,1 (1743).jpg,0.0-14.0-10.0-0.2,1,False,True,0,False,True,True,False,True,True,False,10,10,0,,0,,,1,,,,0,,,,images/1 (1743).jpg,Dn+1,Dn,,19,19,0,0100,,,initialTest_response,3,3,0,0,22421,0.39,737,image-keyboard-response,1,1,1,"current target, in next trial",,,,1775
0100,-OPREg_0DPAdrrOx0ukE,,0,,,,,2.3,r,False,,,,f,F,3,,1307,0100,1 (1800).jpg,0.0-22.0-1.0-0.39,1,True,,0,False,,False,False,,False,False,,0,0,7,5,,,1,,,,0,,,,images/1 (1800).jpg,,FF,,,0,0,0100,,,finalTest,,0,0,340,27284,0.47,1105,image-keyboard-response,,,,final Foil,,,,1775
0100,-OPREgaR5rwDtfF8YymA,,0,,,,,2.3,r,False,,,,f,F,3,,1307,0100,1 (750).jpg,0.0-18.0-1.0-0.2,1,True,,0,False,,False,False,,False,False,,0,0,3,4,,,1,,,,0,,,,images/1 (750).jpg,,FF,,,0,0,0100,,,finalTest,,0,0,111,24455,0.42,876,image-keyboard-response,,,,final Foil,,,,1775
0100,-OPREgaTAcFR-b4LSkYj,,0,,,,,2.3,r,False,,,,j,T_target,3,,1307,0100,1 (1950).jpg,0.0-16.0-1.0-0.41,1,True,,0,True,,True,False,,True,False,,4,0,1,0,,,,,,,0,,,,images/1 (1950).jpg,,B,,,15,0,0100,,,finalTest,,26,0,42,23573,0.41,807,image-keyboard-response,,,,"current target, not in next trial",,,,1775
0100,-OPREgaUxb7xy2sbfK9S,,0,,True,,,2.3,r,False,False,False,,f,T_foil,3,,1307,0100,1 (272).jpg,0.0-8.0-10.0-0.23,1,True,False,0,False,False,True,False,True,True,True,4,3,4,,0,,,2,,,,0,,,,images/1 (272).jpg,Dn,Dn,,0,11,0,0100,,,initialTest_response,24,11,24,33,15420,0.27,302,image-keyboard-response,1,1,1,"current target, in next trial, from last trial",,,,1775
0100,-OPREgaVhblG6l06VDti,,0,,False,,,2.3,r,False,False,,,j,T_target,3,,1307,0100,1 (2135).jpg,0.0-8.0-10.0-0.22,1,True,True,0,False,True,True,False,True,True,False,4,4,False,,0,,,1,,,,0,,,,images/1 (2135).jpg,B,B,,19,19,0,0100,,,initialTest_response,23,23,0,427,15399,0.27,301,image-keyboard-response,1,1,0,"current target, not in next trial",,,,1775
0100,-OPREgaWH_ql9rANQEar,,0,,,,,2.3,r,False,,,,f,F,3,,1307,0100,1 (81).jpg,0.0-21.0-1.0-0.6,1,True,,0,False,,False,False,,False,False,,0,0,6,8,,,1,,,,0,,,,images/1 (81).jpg,,FF,,,0,0,0100,,,finalTest,,0,0,259,26313,0.46,1024,image-keyboard-response,,,,final Foil,,,,1775
0100,-OPREgaYqI0sFg84rsJe,,0,,,,,2.3,r,False,,,,f,F,3,,1307,0100,1 (798).jpg,0.0-16.0-1.0-0.5,1,True,,0,False,,False,False,,False,False,,0,0,1,5,,,1,,,,0,,,,images/1 (798).jpg,,FF,,,0,0,0100,,,finalTest,,0,0,6,23104,0.40,771,image-keyboard-response,,,,final Foil,,,,1775
0100,-OPREgaZXpq4JkuO1pEE,,0,,,,,2.3,r,False,False,False,,j,T_foil,3,,1307,0100,1 (147).jpg,0.0-16.0-1.0-0.6,1,True,,0,True,,False,False,,True,True,,6,7,1,6,,,,,,,0,,,,images/1 (147).jpg,,Fnn,,,0,0,0100,,,finalTest,,29,23,7,23116,0.40,772,image-keyboard-response,,,,"tested only, in next trial",,,,1775
0100,-OPREgbyOnLHWS2nR031,,,,False,,,2.3,r,,,,,,T_target,3,,1307,0100,1 (1879).jpg,0.0-6.0-2.0-0.12,1,True,True,0,,True,True,False,True,True,False,2,2,0,5,0,,,1,,,,,,,,images/1 (1879).jpg,B,B,,13,13,0,0100,,,initial_study,7,7,0,213,12022,0.22,95,image-keyboard-response,1,1,0,"current target, not in next trial",,,,1775
0100,-OPREgc-cAw9XHWl8DOG,,0,,,,,2.3,r,False,,,,j,T_nontarget,3,,1307,0100,1 (395).jpg,0.0-23.0-1.0-0.22,1,True,,0,True,,True,False,,False,False,,7,0,8,0,,,,,,,0,,,,images/1 (395).jpg,,A,,,3,0,0100,,,finalTest,,0,0,371,27684,0.48,1136,image-keyboard-response,,,,"studied only, not in trial",,,,1775
0100,-OPREgc02hEHevfZjN7x,,0,,,,,2.3,r,False,,,,j,T_nontarget,3,,1307,0100,1 (1713).jpg,0.0-23.0-1.0-0.11,1,True,,0,True,,True,False,,False,False,,4,0,8,0,,,,,,,0,,,,images/1 (1713).jpg,,A,,,23,0,0100,,,finalTest,,0,0,360,27539,0.48,1125,image-keyboard-response,,,,"studied only, not in trial",,,,1775
0100,-OPREgc228RtqNLPjbDP,,0,,,,,2.3,r,False,,,,f,F,3,,1307,0100,1 (1585).jpg,0.0-23.0-1.0-0.10,1,True,,0,False,,False,False,,False,False,,0,0,8,7,,,1,,,,0,,,,images/1 (1585).jpg,,FF,,,0,0,0100,,,finalTest,,0,0,359,27527,0.48,1124,image-keyboard-response,,,,final Foil,,,,1775
0100,-OPREgc3fB94q6x05tzj,,0,,,,,2.3,r,False,,,,f,F,3,,1307,0100,1 (584).jpg,0.0-18.0-1.0-0.6,1,True,,0,False,,False,False,,False,False,,0,0,3,0,,,1,,,,0,,,,images/1 (584).jpg,,FF,,,0,0,0100,,,finalTest,,0,0,115,24500,0.43,880,image-keyboard-response,,,,final Foil,,,,1775
0100,-OPREgc4iWWajFe1lfKF,,0,,,,,2.3,r,False,,,,j,T_foil,3,,1307,0100,1 (1174).jpg,0.0-18.0-1.0-0.22,1,True,,0,True,,False,False,,True,False,,4,False,3,4,,,,,,,0,,,,images/1 (1174).jpg,,Fn,,,0,0,0100,,,finalTest,,22,0,131,24715,0.43,896,image-keyboard-response,,,,"tested only, not in next trial",,,,1775
0100,-OPREgc6YoUDSIxNGBxW,,0,,,,,2.3,r,False,,,,f,F,3,,1307,0100,1 (1727).jpg,0.0-18.0-1.0-0.23,1,True,,0,False,,False,False,,False,False,,0,0,3,5,,,1,,,,0,,,,images/1 (1727).jpg,,FF,,,0,0,0100,,,finalTest,,0,0,132,24728,0.43,897,image-keyboard-response,,,,final Foil,,,,1775
0100,-OPREgc7BsT0Tx3QG78z,,0,,False,,,2.3,r,False,False,,,f,T_foil,3,,1307,0100,1 (911).jpg,0.0-14.0-10.0-0.5,1,True,True,0,False,False,False,False,True,True,False,10,10,0,4,0,,,1,,,,0,,,,images/1 (911).jpg,Fn+1,Fn,,0,0,0,0100,,,initialTest_response,6,6,0,171,22489,0.39,740,image-keyboard-response,0,1,0,"tested only, not in next trial",,,,1775
0100,-OPREgc86IQBIGK55L4Z,,,,True,,,2.3,r,,,,,,T_nontarget,3,,1307,0100,1 (327).jpg,0.0-13.0-2.0-0.15,1,False,True,0,,True,True,False,False,False,True,9,9,10,,0,,,1,,,,,,,,images/1 (327).jpg,Cn+1,Cn,,16,16,0,0100,,,initial_study,0,0,23,0,20759,0.36,630,image-keyboard-response,1,0,1,"studied only, in next trial",,,,1775
0100,-OPREgdXe9IFwENdP5zw,,0,,,,,2.3,r,False,,,,f,F,3,,1307,0100,1 (1006).jpg,0.0-20.0-1.0-0.18,1,True,,0,False,,False,False,,False,False,,0,0,5,8,,,1,,,,0,,,,images/1 (1006).jpg,,FF,,,0,0,0100,,,finalTest,,0,0,223,25857,0.45,988,image-keyboard-response,,,,final Foil,,,,1775
0100,-OPREgdYkZJYUlwgCDsS,,0,,,,,2.3,r,False,,,,j,T_target,3,,1307,0100,1 (478).jpg,0.0-21.0-1.0-0.31,1,True,,0,True,,True,False,,True,False,,6,0,6,0,,,,,,,0,,,,images/1 (478).jpg,,B,,,12,0,0100,,,finalTest,,20,0,284,26608,0.46,1049,image-keyboard-response,,,,"current target, not in next trial",,,,1775
0100,-OPREgdZVcPXyrGkVKJj,,0,,,,,2.3,r,False,,,,f,F,3,,1307,0100,1 (772).jpg,0.0-23.0-1.0-0.19,1,True,,0,False,,False,False,,False,False,,0,0,8,7,,,1,,,,0,,,,images/1 (772).jpg,,FF,,,0,0,0100,,,finalTest,,0,0,368,27642,0.48,1133,image-keyboard-response,,,,final Foil,,,,1775
0100,-OPREgd_J8jV9r8do8Wg,,0,,False,,,2.3,r,False,False,,,j,T_target,3,,1307,0100,1 (1692).jpg,0.0-11.0-10.0-0.10,1,True,True,0,False,True,True,False,True,True,False,7,7,False,,0,,,1,,,,0,,,,images/1 (1692).jpg,B,B,,28,28,0,0100,,,initialTest_response,11,11,0,185,18857,0.33,517,image-keyboard-response,1,1,0,"current target, not in next trial",,,,1775
0100,-OPREgdcxuYZ6vVJobbT,,0,,False,,,2.3,r,False,False,,,j,T_target,3,,1307,0100,1 (1762).jpg,0.0-14.0-10.0-0.0,1,True,True,0,False,True,True,False,True,True,False,10,10,0,,0,,,1,,,,0,,,,images/1 (1762).jpg,B,B,,24,24,0,0100,,,initialTest_response,1,1,0,24,22378,0.39,735,image-keyboard-response,1,1,0,"current target, not in next trial",,,,1775
0100,-OPREgdegqZglvAjiThf,,,,False,,,2.3,r,,,,,,T_nontarget,3,,1307,0100,1 (1326).jpg,0.0-12.0-2.0-0.12,1,True,True,0,,True,True,False,False,False,False,8,8,0,8,0,,,1,,,,,,,,images/1 (1326).jpg,A,A,,13,13,0,0100,,,initial_study,0,0,0,393,19477,0.34,551,image-keyboard-response,1,0,0,"studied only, not in trial",,,,1775
0100,-OPREgdfp5GklGjxlVsd,,0,,,,,2.3,r,False,,,,j,T_nontarget,3,,1307,0100,1 (1930).jpg,0.0-18.0-1.0-0.39,1,True,,0,True,,True,False,,False,False,,5,0,3,0,,,,,,,0,,,,images/1 (1930).jpg,,A,,,25,0,0100,,,finalTest,,0,0,148,24936,0.43,913,image-keyboard-response,,,,"studied only, not in trial",,,,1775
0100,-OPREgdg80_J4UqZdBr0,,0,,,,,2.3,r,False,,,,j,T_nontarget,3,,1307,0100,1 (58).jpg,0.0-18.0-1.0-0.36,1,True,,0,True,,True,False,,False,False,,4,0,3,0,,,,,,,0,,,,images/1 (58).jpg,,A,,,4,0,0100,,,finalTest,,0,0,145,24896,0.43,910,image-keyboard-response,,,,"studied only, not in trial",,,,1775
0100,-OPREgdhgdzTWXltMwwc,,0,,,,,2.3,r,False,,,,f,F,3,,1307,0100,1 (1751).jpg,0.0-18.0-1.0-0.44,1,True,,0,False,,False,False,,False,False,,0,0,3,6,,,1,,,,0,,,,images/1 (1751).jpg,,FF,,,0,0,0100,,,finalTest,,0,0,153,24999,0.43,918,image-keyboard-response,,,,final Foil,,,,1775
0100,-OPREgdip39ncza7IULS,,0,,,,,2.3,r,False,,,,f,F,3,,1307,0100,1 (1397).jpg,0.0-18.0-1.0-0.43,1,True,,0,False,,False,False,,False,False,,0,0,3,9,,,1,,,,0,,,,images/1 (1397).jpg,,FF,,,0,0,0100,,,finalTest,,0,0,152,24986,0.43,917,image-keyboard-response,,,,final Foil,,,,1775
0100,-OPREgf5dsIE4jAb_b9R,,0,,False,,,2.3,r,False,False,,,j,T_target,3,,1307,0100,1 (2063).jpg,0.0-6.0-10.0-0.16,1,True,True,0,False,True,True,False,True,True,False,2,2,False,,0,,,1,,,,0,,,,images/1 (2063).jpg,B,B,,19,19,0,0100,,,initialTest_response,17,17,0,189,12751,0.23,143,image-keyboard-response,1,1,0,"current target, not in next trial",,,,1775
0100,-OPREgf7Ui_r5LkCI_FP,,,,,,,2.3,r,,,,,,,3,,1307,0100,,0.0-11.0-5.0-0.7,1,,,0,,,,,,,,7,,,,,,,,,8,,,,,,6,,,6,,,,0100,,45,digitPresentation,,,,,18576,0.33,502,html-keyboard-response,,,,,,,,1775
