parent_document_id,document_id,HaveSeenImages,accumulated_accuracy,all_accumulated_accuracy,anRepeatedItem,browser,browser_version,codeversion,condition,correct,correct_appear1,correct_appear2,correct_response,correct_response_key,current_assignmentTypesWithinList,designversion,fullscreen,height,id,id_picName,internal_node_id,is_changedfullscreen,is_chosenFinal,is_currentObjAppear1,is_finished,is_old,is_studied_appear0_initial,is_studied_appear1_initial,is_studied_appear2_initial,is_tested_appear0_initial,is_tested_appear1_initial,is_tested_appear2_initial,listNum_appear0_initial,listNum_appear1_initial,listNum_appear2_initial,listNum_infinalOrder,listNum_pickedFrom,microphone,mobile,num_CurrObjAppear,os,presPos_digit,question_order,recognition_correct,response,responsesum,rt,session_id,stimulus,stimulusConditionName_nPlusOneTrial,stimulusConditions,stimulus_id,studyPos_appear0_initial,studyPos_appear1_initial,studyPos_appear2_initial,study_id,subject_id,success,sum_currList,task,testPos_appear0_initial,testPos_appear1_initial,testPos_appear2_initial,testPos_final,time_elapsed,timepassed_mins,trial_index,trial_type,type_code_studiedCurr,type_code_testiedCurr,type_code_testiedNext,type_comment,vsync_rate,webaudio,webcam,width
100896,00f7ESfPuJyuyA6vFVTE,,,,False,,,2,r,,,,,,T_nontarget,3,,1728,100896,1 (1560).jpg,0.0-12.0-2.0-0.16,0,True,True,0,,True,True,False,False,False,False,8,8,0,8,0,,,1,,,,,,,,,images/1 (1560).jpg,A,A,,17,17,0,,100896,,,initial_study,0,0,0,355,17054,0.29,555,image-keyboard-response,1,0,0,"studied only, not in trial",,,,2562
100896,00qmNlmRHrBmd5FCoQat,,0,,False,,,2,r,False,False,,,j,T_target,3,,1728,100896,1 (2307).jpg,0.0-13.0-10.0-0.6,0,True,True,0,False,True,True,False,True,True,False,9,9,False,,0,,,1,,,,0,,,,,images/1 (2307).jpg,B,B,,12,12,0,,100896,,,initialTest_response,7,7,0,467,18734,0.32,665,image-keyboard-response,1,1,0,"current target, not in next trial",,,,2562
100896,03SaKEAlLxBdjZh6HQSq,,0,,,,,2,r,False,,,,f,F,3,,1728,100896,1 (2257).jpg,0.0-25.0-1.0-0.5,0,True,,0,False,,False,False,,False,False,,0,0,10,9,,,1,,,,0,,,,,images/1 (2257).jpg,,FF,,,0,0,,100896,,,finalTest,,0,0,450,25863,0.44,1215,image-keyboard-response,,,,final Foil,,,,2562
100896,07aZMOuDCsf6rBNIcbOR,,0,,True,,,2,r,False,False,False,,f,T_foil,3,,1728,100896,1 (1851).jpg,0.0-7.0-10.0-0.13,0,True,False,0,False,False,False,False,True,False,True,3,2,3,,0,,,2,,,,0,,,,,images/1 (1851).jpg,Fnn,Fnn,,0,0,0,,100896,,,initialTest_response,14,0,14,175,11596,0.20,216,image-keyboard-response,0,1,1,"tested only, in next trial, from last trial",,,,2562
100896,0DFAoL7C775oYmaTR2J7,,0,,,,,2,r,False,,,,j,T_nontarget,3,,1728,100896,1 (383).jpg,0.0-22.0-1.0-0.12,0,True,,0,True,,True,False,,False,False,,1,0,7,0,,,,,,,0,,,,,images/1 (383).jpg,,A,,,19,0,,100896,,,finalTest,,0,0,313,24211,0.41,1078,image-keyboard-response,,,,"studied only, not in trial",,,,2562
100896,0EZMbPvdIY1dUFLNbHQp,,0,,,,,2,r,False,,,,f,F,3,,1728,100896,1 (1258).jpg,0.0-16.0-1.0-0.49,0,True,,0,False,,False,False,,False,False,,0,0,1,6,,,1,,,,0,,,,,images/1 (1258).jpg,,FF,,,0,0,,100896,,,finalTest,,0,0,50,21071,0.36,815,image-keyboard-response,,,,final Foil,,,,2562
100896,0IROSvARqdynUJlsYGez,,,,False,,,2,r,,,,,,T_nontarget,3,,1728,100896,1 (97).jpg,0.0-9.0-2.0-0.23,0,False,True,0,,True,True,False,False,False,False,5,5,0,,0,,,1,,,,,,,,,images/1 (97).jpg,A,A,,24,24,0,,100896,,,initial_study,0,0,0,0,13475,0.23,334,image-keyboard-response,1,0,0,"studied only, not in trial",,,,2562
100896,0M715aK3tZ5DJlIntPmW,,,,False,,,2,r,,,,,,T_nontarget,3,,1728,100896,1 (1490).jpg,0.0-7.0-2.0-0.16,0,False,True,0,,True,True,False,False,False,False,3,3,0,,0,,,1,,,,,,,,,images/1 (1490).jpg,A,A,,17,17,0,,100896,,,initial_study,0,0,0,0,10976,0.19,175,image-keyboard-response,1,0,0,"studied only, not in trial",,,,2562
100896,0NxDOtPP1VMibY9Oyfec,,0,,False,,,2,r,False,False,,,j,T_target,3,,1728,100896,1 (1895).jpg,0.0-6.0-10.0-0.27,0,True,True,0,False,True,True,False,True,True,False,2,2,False,,0,,,1,,,,0,,,,,images/1 (1895).jpg,B,B,,21,21,0,,100896,,,initialTest_response,28,28,0,277,10698,0.18,154,image-keyboard-response,1,1,0,"current target, not in next trial",,,,2562
100896,0Q7uhaQkxvBiUFvozuJ5,,,,False,,,2,r,,,,,,T_target,3,,1728,100896,1 (1311).jpg,0.0-9.0-2.0-0.21,0,True,True,0,,True,True,False,True,True,False,5,5,0,6,0,,,1,,,,,,,,,images/1 (1311).jpg,B,B,,22,22,0,,100896,,,initial_study,1,1,0,295,13451,0.23,332,image-keyboard-response,1,1,0,"current target, not in next trial",,,,2562
100896,0T40RlauEZDfBc2Kc5Kg,,0,,,,,2,r,False,,,,f,F,3,,1728,100896,1 (1217).jpg,0.0-22.0-1.0-0.23,0,True,,0,False,,False,False,,False,False,,0,0,7,8,,,1,,,,0,,,,,images/1 (1217).jpg,,FF,,,0,0,,100896,,,finalTest,,0,0,324,24355,0.41,1089,image-keyboard-response,,,,final Foil,,,,2562
100896,0iM5XUtPAwcxy0HXoU1r,,0,,,,,2,r,False,,,,j,T_target,3,,1728,100896,1 (751).jpg,0.0-23.0-1.0-0.16,0,True,,0,True,,True,False,,True,False,,8,0,8,0,,,,,,,0,,,,,images/1 (751).jpg,,B,,,10,0,,100896,,,finalTest,,23,0,365,24842,0.42,1130,image-keyboard-response,,,,"current target, not in next trial",,,,2562
100896,0nQbO3klYsDSSPabUbiH,,,,,,,2,r,,,,,,,3,,1728,100896,,0.0-14.0-5.0-0.2,0,,,0,,,,,,,,10,,,,,,,,,3,,,,,,,6,,,6,,,,,100896,,57,digitPresentation,,,,,19679,0.33,725,html-keyboard-response,,,,,,,,2562
100896,0p7w8oeLZLbNYmoCrLUK,,,,,,,2,r,,,,,,,3,,1728,100896,,0.0-26.0,0,,,3,,,,,,,,,,,,,,,,,,,,{'surveyend': ''},,4271913,,,,,,,,,,100896,,,surveyatend,,,,,4298289,71.64,1258,survey-text,,,,,,,,2562
100896,0pQAQY4g6mpyW3lBLqxU,,,,,,,2,r,,,,,,,3,,1728,100896,,0.0-6.0-5.0-0.2,0,,,0,,,,,,,,2,,,,,,,,,3,,,,,,,7,,,7,,,,,100896,,52,digitPresentation,,,,,9960,0.17,117,html-keyboard-response,,,,,,,,2562
100896,0xUB8t8xV1ZKoWPdWHbG,,0,,,,,2,r,False,,,,f,F,3,,1728,100896,1 (1769).jpg,0.0-22.0-1.0-0.30,0,True,,0,False,,False,False,,False,False,,0,0,7,2,,,1,,,,0,,,,,images/1 (1769).jpg,,FF,,,0,0,,100896,,,finalTest,,0,0,331,24439,0.41,1096,image-keyboard-response,,,,final Foil,,,,2562
100896,12ILj5RrZQO0hXfLnLzY,,0,,True,,,2,r,False,,False,,f,T_foil,3,,1728,100896,1 (119).jpg,0.0-9.0-10.0-0.13,0,True,False,0,False,False,True,False,True,False,True,5,4,5,,0,,,2,,,,0,,,,,images/1 (119).jpg,Cn,Cn,,0,3,0,,100896,,,initialTest_response,14,0,14,477,14028,0.24,368,image-keyboard-response,1,0,1,"studied only, in next trial, from last trial",,,,2562
100896,12uhJAkOmKncepHwlCbg,,0,,,,,2,r,False,,,,j,T_nontarget,3,,1728,100896,1 (2323).jpg,0.0-23.0-1.0-0.14,0,True,,0,True,,True,False,,False,False,,7,0,8,0,,,,,,,0,,,,,images/1 (2323).jpg,,A,,,2,0,,100896,,,finalTest,,0,0,363,24817,0.42,1128,image-keyboard-response,,,,"studied only, not in trial",,,,2562
100896,18ECwq3GHTwcGY76ZH21,,,,,,,2,r,,,,,,,3,,1728,100896,,0.0-14.0-5.0-0.3,0,,,0,,,,,,,,10,,,,,,,,,4,,,,,,,8,,,8,,,,,100896,,57,digitPresentation,,,,,19689,0.33,726,html-keyboard-response,,,,,,,,2562
100896,1CkWBH2xWkkawHwHjCsc,,0,,True,,,2,r,False,False,,,f,T_foil,3,,1728,100896,1 (525).jpg,0.0-5.0-10.0-0.8,0,True,True,0,False,False,False,False,True,True,True,1,1,2,7,0,,,1,,,,0,,,,,images/1 (525).jpg,Fnn+1,Fnn,,0,0,0,,100896,,,initialTest_response,9,9,5,342,9046,0.16,59,image-keyboard-response,0,1,1,"tested only, in next trial",,,,2562
100896,1Jl9YmlNa2fe85txcpc5,,0,,True,,,2,r,False,False,,,f,T_foil,3,,1728,100896,1 (2324).jpg,0.0-10.0-10.0-0.3,0,True,True,0,False,False,False,False,True,True,True,6,6,7,8,0,,,1,,,,0,,,,,images/1 (2324).jpg,Fnn+1,Fnn,,0,0,0,,100896,,,initialTest_response,4,4,18,354,15015,0.26,434,image-keyboard-response,0,1,1,"tested only, in next trial",,,,2562
100896,1Jr8Q7hcu9cZqV9lnbjg,,0,,True,,,2,r,False,,False,,f,T_foil,3,,1728,100896,1 (1427).jpg,0.0-7.0-10.0-0.8,0,True,False,0,False,False,True,False,True,False,True,3,2,3,,0,,,2,,,,0,,,,,images/1 (1427).jpg,Cn,Cn,,0,29,0,,100896,,,initialTest_response,9,0,9,206,11482,0.20,211,image-keyboard-response,1,0,1,"studied only, in next trial, from last trial",,,,2562
100896,1Z9lmRGcFlwE0ee02zKh,,,,,,,2,r,,,,,,,3,,1728,100896,,0.0-8.0-8.0-0.0,0,,,0,,,,,,,,,,,,,,,,,,,,,,,,Now judge if you have seen this pictures from the list you JUST studied before the digits,,,,,,,,100896,,,prompt,,,,,12478,0.21,277,html-keyboard-response,,,,,,,,2562
100896,1dtNEEFsEZqDlaykzKSV,,0,,,,,2,r,False,,,,f,F,3,,1728,100896,1 (757).jpg,0.0-19.0-1.0-0.36,0,True,,0,False,,False,False,,False,False,,0,0,4,8,,,1,,,,0,,,,,images/1 (757).jpg,,FF,,,0,0,,100896,,,finalTest,,0,0,193,22794,0.39,958,image-keyboard-response,,,,final Foil,,,,2562
100896,1eDnht5meJOTO01XZyNX,,0,,,,,2,r,False,,,,f,F,3,,1728,100896,1 (679).jpg,0.0-21.0-1.0-0.9,0,True,,0,False,,False,False,,False,False,,0,0,6,6,,,1,,,,0,,,,,images/1 (679).jpg,,FF,,,0,0,,100896,,,finalTest,,0,0,262,23615,0.40,1027,image-keyboard-response,,,,final Foil,,,,2562
100896,1gT1gRQDHeDEJwf8Ro5R,,,,,,,2,r,,,,,,,3,,1728,100896,,0.0-8.0-5.0-0.7,0,,,0,,,,,,,,4,,,,,,,,,8,,,,,,,7,,,7,,,,,100896,,57,digitPresentation,,,,,12443,0.21,274,html-keyboard-response,,,,,,,,2562
100896,1iyHXFk3TpFnYmK75dkX,,0,,True,,,2,r,False,False,,,j,T_target,3,,1728,100896,1 (609).jpg,0.0-11.0-10.0-0.16,0,False,True,0,False,True,True,False,True,True,True,7,7,8,,0,,,1,,,,0,,,,,images/1 (609).jpg,Dn+1,Dn,,5,5,0,,100896,,,initialTest_response,17,17,28,0,16529,0.28,523,image-keyboard-response,1,1,1,"current target, in next trial",,,,2562
100896,1mfamq08cn2COyfNBnaz,,,,False,,,2,r,,,,,,T_nontarget,3,,1728,100896,1 (660).jpg,0.0-8.0-2.0-0.17,0,True,True,0,,True,True,False,False,False,False,4,4,0,9,0,,,1,,,,,,,,,images/1 (660).jpg,A,A,,18,18,0,,100896,,,initial_study,0,0,0,442,12194,0.21,252,image-keyboard-response,1,0,0,"studied only, not in trial",,,,2562
100896,1oghgNZLv1h8nEriDLD6,,0,,,,,2,r,False,,,,f,F,3,,1728,100896,1 (1543).jpg,0.0-25.0-1.0-0.1,0,True,,0,False,,False,False,,False,False,,0,0,10,8,,,1,,,,0,,,,,images/1 (1543).jpg,,FF,,,0,0,,100896,,,finalTest,,0,0,446,25817,0.44,1211,image-keyboard-response,,,,final Foil,,,,2562
100896,1plPs95mdqmHb4RzpRIW,,0,,,,,2,r,False,,,,f,F,3,,1728,100896,1 (1723).jpg,0.0-22.0-1.0-0.15,0,True,,0,False,,False,False,,False,False,,0,0,7,1,,,1,,,,0,,,,,images/1 (1723).jpg,,FF,,,0,0,,100896,,,finalTest,,0,0,316,24244,0.41,1081,image-keyboard-response,,,,final Foil,,,,2562
100896,1qr9gv0LuUz9hlfCaZnO,,,,False,,,2,r,,,,,,T_nontarget,3,,1728,100896,1 (847).jpg,0.0-6.0-2.0-0.19,0,False,True,0,,True,True,False,False,False,False,2,2,0,,0,,,1,,,,,,,,,images/1 (847).jpg,A,A,,20,20,0,,100896,,,initial_study,0,0,0,0,9781,0.17,102,image-keyboard-response,1,0,0,"studied only, not in trial",,,,2562
100896,1rpxyyzB5JoVL5PQmNpn,,,,True,,,2,r,,,,,,T_target,3,,1728,100896,1 (2251).jpg,0.0-11.0-2.0-0.10,0,True,True,0,,True,True,False,True,True,True,7,7,8,3,0,,,1,,,,,,,,,images/1 (2251).jpg,Dn+1,Dn,,11,11,0,,100896,,,initial_study,24,24,30,119,15771,0.27,473,image-keyboard-response,1,1,1,"current target, in next trial",,,,2562
100896,20WE2v55ZUQVVWxCOEwZ,,0,,,,,2,r,False,,,,f,F,3,,1728,100896,1 (734).jpg,0.0-24.0-1.0-0.14,0,True,,0,False,,False,False,,False,False,,0,0,9,8,,,1,,,,0,,,,,images/1 (734).jpg,,FF,,,0,0,,100896,,,finalTest,,0,0,411,25392,0.43,1176,image-keyboard-response,,,,final Foil,,,,2562
100896,24FCO2w4LseT7bqpM9uI,,,,False,,,2,r,,,,,,T_target,3,,1728,100896,1 (768).jpg,0.0-12.0-2.0-0.19,0,True,True,0,,True,True,False,True,True,False,8,8,0,6,0,,,1,,,,,,,,,images/1 (768).jpg,B,B,,20,20,0,,100896,,,initial_study,8,8,0,256,17088,0.29,558,image-keyboard-response,1,1,0,"current target, not in next trial",,,,2562
100896,26KVtUeAQUZHcaMgcqHO,,0,,,,,2,r,False,,,,f,F,3,,1728,100896,1 (2046).jpg,0.0-25.0-1.0-0.29,0,True,,0,False,,False,False,,False,False,,0,0,10,10,,,1,,,,0,,,,,images/1 (2046).jpg,,FF,,,0,0,,100896,,,finalTest,,0,0,474,26150,0.44,1239,image-keyboard-response,,,,final Foil,,,,2562
100896,27Ytr2mROeiMnX9N6FQr,,,,,,,2,r,,,,,,,3,,1728,100896,,0.0-7.0-5.0-0.3,0,,,0,,,,,,,,3,,,,,,,,,4,,,,,,,5,,,5,,,,,100896,,57,digitPresentation,,,,,11202,0.19,194,html-keyboard-response,,,,,,,,2562
100896,295kGcMktAMyLkFFKFU3,,,,,,,2,r,,,,,,,3,,1728,100896,,0.0-7.0-5.0-0.2,0,,,0,,,,,,,,3,,,,,,,,,3,,,,,,,6,,,6,,,,,100896,,57,digitPresentation,,,,,11190,0.19,193,html-keyboard-response,,,,,,,,2562
100896,2B0JwR8jk460q8piFZ7L,,0,,,,,2,r,False,,,,f,F,3,,1728,100896,1 (1559).jpg,0.0-16.0-1.0-0.3,0,True,,0,False,,False,False,,False,False,,0,0,1,3,,,1,,,,0,,,,,images/1 (1559).jpg,,FF,,,0,0,,100896,,,finalTest,,0,0,4,20520,0.35,769,image-keyboard-response,,,,final Foil,,,,2562
100896,2BbcDim342PRw1NpdKI4,,,,False,,,2,r,,,,,,T_nontarget,3,,1728,100896,1 (622).jpg,0.0-11.0-2.0-0.20,0,False,True,0,,True,True,False,False,False,False,7,7,0,,0,,,1,,,,,,,,,images/1 (622).jpg,A,A,,21,21,0,,100896,,,initial_study,0,0,0,0,15885,0.27,483,image-keyboard-response,1,0,0,"studied only, not in trial",,,,2562
100896,2ECbExvN50LturnERuQU,,,,False,,,2,r,,,,,,T_target,3,,1728,100896,1 (2373).jpg,0.0-11.0-2.0-0.26,0,True,True,0,,True,True,False,True,True,False,7,7,0,8,0,,,1,,,,,,,,,images/1 (2373).jpg,B,B,,27,27,0,,100896,,,initial_study,25,25,0,374,15963,0.27,489,image-keyboard-response,1,1,0,"current target, not in next trial",,,,2562
100896,2KNSPuXW80O0lx2kYoei,,0,,,,,2,r,False,,False,,j,T_nontarget,3,,1728,100896,1 (1402).jpg,0.0-23.0-1.0-0.46,0,True,,0,True,,True,False,,False,True,,5,6,8,0,,,,,,,0,,,,,images/1 (1402).jpg,,Cn,,,12,0,,100896,,,finalTest,,0,16,395,25197,0.43,1160,image-keyboard-response,,,,"studied only, in next trial",,,,2562
100896,2Lm8uQD1BeVep6YvastE,,0,,,,,2,r,False,False,False,,j,T_foil,3,,1728,100896,1 (1851).jpg,0.0-19.0-1.0-0.18,0,True,,0,True,,False,False,,True,True,,2,3,4,2,,,,,,,0,,,,,images/1 (1851).jpg,,Fnn,,,0,0,,100896,,,finalTest,,8,14,175,22578,0.38,940,image-keyboard-response,,,,"tested only, in next trial",,,,2562
100896,2OegvKhWlCXZtf297Sf0,,,,False,,,2,r,,,,,,T_target,3,,1728,100896,1 (1899).jpg,0.0-9.0-2.0-0.5,0,True,True,0,,True,True,False,True,True,False,5,5,0,4,0,,,1,,,,,,,,,images/1 (1899).jpg,B,B,,6,6,0,,100896,,,initial_study,27,27,0,186,13261,0.23,316,image-keyboard-response,1,1,0,"current target, not in next trial",,,,2562
100896,2QvQIeYOjnUGVg3zzgHr,,0,,False,,,2,r,False,False,,,j,T_target,3,,1728,100896,1 (574).jpg,0.0-5.0-10.0-0.25,0,True,True,0,False,True,True,False,True,True,False,1,1,False,,0,,,1,,,,0,,,,,images/1 (574).jpg,B,B,,14,14,0,,100896,,,initialTest_response,26,26,0,98,9420,0.16,76,image-keyboard-response,1,1,0,"current target, not in next trial",,,,2562
100896,2WVJTfCTR9849e2yvuRw,,0,,True,,,2,r,False,False,,,j,T_target,3,,1728,100896,1 (2109).jpg,0.0-6.0-10.0-0.20,0,True,True,0,False,True,True,False,True,True,True,2,2,3,,0,,,1,,,,0,,,,,images/1 (2109).jpg,Dn+1,Dn,,15,15,0,,100896,,,initialTest_response,21,21,15,397,10543,0.18,147,image-keyboard-response,1,1,1,"current target, in next trial",,,,2562
100896,2Z1POelUnY6V9k0QeEYn,,0,,False,,,2,r,False,False,,,j,T_target,3,,1728,100896,1 (1489).jpg,0.0-12.0-10.0-0.10,0,False,True,0,False,True,True,False,True,True,False,8,8,False,,0,,,1,,,,0,,,,,images/1 (1489).jpg,B,B,,30,30,0,,100896,,,initialTest_response,11,11,0,0,17617,0.30,593,image-keyboard-response,1,1,0,"current target, not in next trial",,,,2562
100896,2dzZYnTTXvQ4g92lLiEu,,,,True,,,2,r,,,,,,T_nontarget,3,,1728,100896,1 (1427).jpg,0.0-6.0-2.0-0.28,0,True,True,0,,True,True,False,False,False,True,2,2,3,5,0,,,1,,,,,,,,,images/1 (1427).jpg,Cn+1,Cn,,29,29,0,,100896,,,initial_study,0,0,9,206,9893,0.17,111,image-keyboard-response,1,0,1,"studied only, in next trial",,,,2562
100896,2e0dYtYuB6gUDGfJzIV6,,0,,,,,2,r,False,,,,f,F,3,,1728,100896,1 (2391).jpg,0.0-18.0-1.0-0.29,0,True,,0,False,,False,False,,False,False,,0,0,3,10,,,1,,,,0,,,,,images/1 (2391).jpg,,FF,,,0,0,,100896,,,finalTest,,0,0,138,22134,0.37,903,image-keyboard-response,,,,final Foil,,,,2562
100896,2fnwkpxcZlwNVT9OKRpv,,,,False,,,2,r,,,,,,T_nontarget,3,,1728,100896,1 (172).jpg,0.0-7.0-2.0-0.4,0,True,True,0,,True,True,False,False,False,False,3,3,0,3,0,,,1,,,,,,,,,images/1 (172).jpg,A,A,,5,5,0,,100896,,,initial_study,0,0,0,130,10838,0.19,163,image-keyboard-response,1,0,0,"studied only, not in trial",,,,2562
100896,2jrHTP1DoRPqSsA3QMCZ,,0,,False,,,2,r,False,False,,,j,T_target,3,,1728,100896,1 (499).jpg,0.0-14.0-10.0-0.16,0,True,True,0,False,True,True,False,True,True,False,10,10,0,,0,,,1,,,,0,,,,,images/1 (499).jpg,B,B,,27,27,0,,100896,,,initialTest_response,17,17,0,215,20150,0.34,751,image-keyboard-response,1,1,0,"current target, not in next trial",,,,2562
100896,2lsAkNJDPswV4GEhgNmu,,0,,True,,,2,r,False,False,False,,f,T_foil,3,,1728,100896,1 (2235).jpg,0.0-10.0-10.0-0.8,0,True,False,0,False,False,False,False,True,False,True,6,5,6,,0,,,2,,,,0,,,,,images/1 (2235).jpg,Fnn,Fnn,,0,0,0,,100896,,,initialTest_response,9,0,9,244,15129,0.26,439,image-keyboard-response,0,1,1,"tested only, in next trial, from last trial",,,,2562
100896,2s9pQwJelDX6xjeHK5D2,,0,,,,,2,r,False,,,,j,T_target,3,,1728,100896,1 (1947).jpg,0.0-17.0-1.0-0.31,0,True,,0,True,,True,False,,True,False,,1,0,2,0,,,,,,,0,,,,,images/1 (1947).jpg,,B,,,20,0,,100896,,,finalTest,,7,0,92,21583,0.37,857,image-keyboard-response,,,,"current target, not in next trial",,,,2562
100896,3101lBtATVFxqkqNaUjV,,0,,,,,2,r,False,,,,j,T_foil,3,,1728,100896,1 (891).jpg,0.0-20.0-1.0-0.11,0,True,,0,True,,False,False,,True,False,,9,False,5,9,,,,,,,0,,,,,images/1 (891).jpg,,Fn,,,0,0,,100896,,,finalTest,,11,0,216,23073,0.39,981,image-keyboard-response,,,,"tested only, not in next trial",,,,2562
100896,353PurYCY1F8F74TttIP,,0,,False,,,2,r,False,False,,,j,T_target,3,,1728,100896,1 (409).jpg,0.0-10.0-10.0-0.18,0,True,True,0,False,True,True,False,True,True,False,6,6,False,,0,,,1,,,,0,,,,,images/1 (409).jpg,B,B,,21,21,0,,100896,,,initialTest_response,19,19,0,208,15356,0.26,449,image-keyboard-response,1,1,0,"current target, not in next trial",,,,2562
100896,3E8Q0zIBzlbAX62C5CO6,,0,,,,,2,r,False,,,,f,F,3,,1728,100896,1 (1690).jpg,0.0-16.0-1.0-0.37,0,True,,0,False,,False,False,,False,False,,0,0,1,0,,,1,,,,0,,,,,images/1 (1690).jpg,,FF,,,0,0,,100896,,,finalTest,,0,0,38,20930,0.35,803,image-keyboard-response,,,,final Foil,,,,2562
100896,3EBP7siup7jVX7gu0fot,,0,,,,,2,r,False,,,,f,F,3,,1728,100896,1 (1271).jpg,0.0-24.0-1.0-0.39,0,True,,0,False,,False,False,,False,False,,0,0,9,0,,,1,,,,0,,,,,images/1 (1271).jpg,,FF,,,0,0,,100896,,,finalTest,,0,0,436,25691,0.43,1201,image-keyboard-response,,,,final Foil,,,,2562
100896,3GUBayOVyROyFgIUZ5uL,,0,,,,,2,r,False,,,,j,T_nontarget,3,,1728,100896,1 (745).jpg,0.0-23.0-1.0-0.22,0,True,,0,True,,True,False,,False,False,,7,0,8,0,,,,,,,0,,,,,images/1 (745).jpg,,A,,,9,0,,100896,,,finalTest,,0,0,371,24913,0.42,1136,image-keyboard-response,,,,"studied only, not in trial",,,,2562
100896,3ItuxlcYfIcTH5Rgm1Ld,,0,,,,,2,r,False,,,,f,F,3,,1728,100896,1 (507).jpg,0.0-20.0-1.0-0.19,0,True,,0,False,,False,False,,False,False,,0,0,5,10,,,1,,,,0,,,,,images/1 (507).jpg,,FF,,,0,0,,100896,,,finalTest,,0,0,224,23168,0.39,989,image-keyboard-response,,,,final Foil,,,,2562
100896,3Kf76pRAzpAOyD93zbt5,,0,,False,,,2,r,False,False,,,f,T_foil,3,,1728,100896,1 (2180).jpg,0.0-12.0-10.0-0.12,0,True,True,0,False,False,False,False,True,True,False,8,8,False,1,0,,,1,,,,0,,,,,images/1 (2180).jpg,Fn+1,Fn,,0,0,0,,100896,,,initialTest_response,13,13,0,42,17660,0.30,595,image-keyboard-response,0,1,0,"tested only, not in next trial",,,,2562
100896,3LFHvbEcu0j71ueGZLhm,,0,,,,,2,r,False,,,,f,F,3,,1728,100896,1 (1234).jpg,0.0-17.0-1.0-0.16,0,True,,0,False,,False,False,,False,False,,0,0,2,10,,,1,,,,0,,,,,images/1 (1234).jpg,,FF,,,0,0,,100896,,,finalTest,,0,0,77,21394,0.36,842,image-keyboard-response,,,,final Foil,,,,2562
100896,3NWfdIFRUQoiemnmr20P,,0,,,,,2,r,False,,,,j,T_target,3,,1728,100896,1 (394).jpg,0.0-16.0-1.0-0.46,0,True,,0,True,,True,False,,True,False,,5,0,1,0,,,,,,,0,,,,,images/1 (394).jpg,,B,,,2,0,,100896,,,finalTest,,18,0,47,21036,0.36,812,image-keyboard-response,,,,"current target, not in next trial",,,,2562
100896,3P1vaNGxiufs4Dxvs5Cs,,,,,,,2,r,,,,,,,3,,1728,100896,,0.0-9.0-0.0-0.0,0,,,0,,,,,,,,,,,,,,,,,,,,,,,,"
    <p style='text-align: justify;color: black;background: white;font: caption-;''>
        Press the 'enter' key to see the next list of pictures. </p>
    ",,,,,,,,100896,,,,,,,,13178,0.23,309,html-keyboard-response,,,,,,,,2562
100896,3RQ6ldt8P7zAJbzoHghe,,0,,False,,,2,r,False,False,,,f,T_foil,3,,1728,100896,1 (342).jpg,0.0-5.0-10.0-0.2,0,False,True,0,False,False,False,False,True,True,False,1,1,False,,0,,,1,,,,0,,,,,images/1 (342).jpg,Fn+1,Fn,,0,0,0,,100896,,,initialTest_response,3,3,0,0,8904,0.15,53,image-keyboard-response,0,1,0,"tested only, not in next trial",,,,2562
100896,3TuIhnriqZ9VGLBi3eI8,,,,False,,,2,r,,,,,,T_target,3,,1728,100896,1 (1363).jpg,0.0-13.0-2.0-0.21,0,True,True,0,,True,True,False,True,True,False,9,9,0,1,0,,,1,,,,,,,,,images/1 (1363).jpg,B,B,,22,22,0,,100896,,,initial_study,4,4,0,33,18340,0.31,636,image-keyboard-response,1,1,0,"current target, not in next trial",,,,2562
100896,3VXyWIB8YvQSwzHhmR2v,,0,,,,,2,r,False,,,,j,T_target,3,,1728,100896,1 (1236).jpg,0.0-25.0-1.0-0.40,0,True,,0,True,,True,False,,True,False,,9,0,10,0,,,,,,,0,,,,,images/1 (1236).jpg,,B,,,2,0,,100896,,,finalTest,,12,0,485,26280,0.44,1250,image-keyboard-response,,,,"current target, not in next trial",,,,2562
100896,3dvO5paylc5bbGC20bw8,,0,,False,,,2,r,False,False,,,j,T_target,3,,1728,100896,1 (185).jpg,0.0-9.0-10.0-0.16,0,True,True,0,False,True,True,False,True,True,False,5,5,False,,0,,,1,,,,0,,,,,images/1 (185).jpg,B,B,,21,21,0,,100896,,,initialTest_response,17,17,0,24,14093,0.24,371,image-keyboard-response,1,1,0,"current target, not in next trial",,,,2562
100896,3l84liRMi7zXFxfFOO6R,,0,,True,,,2,r,False,False,,,f,T_foil,3,,1728,100896,1 (1069).jpg,0.0-13.0-10.0-0.2,0,True,True,0,False,False,False,False,True,True,True,9,9,10,2,0,,,1,,,,0,,,,,images/1 (1069).jpg,Fnn+1,Fnn,,0,0,0,,100896,,,initialTest_response,3,3,28,62,18644,0.32,661,image-keyboard-response,0,1,1,"tested only, in next trial",,,,2562
100896,3p1vkzeXUm4Uvx88Bnk5,,0,,True,,,2,r,False,False,,,j,T_target,3,,1728,100896,1 (360).jpg,0.0-5.0-10.0-0.1,0,False,True,0,False,True,True,False,True,True,True,1,1,2,,0,,,1,,,,0,,,,,images/1 (360).jpg,Dn+1,Dn,,9,9,0,,100896,,,initialTest_response,2,2,27,0,8882,0.15,52,image-keyboard-response,1,1,1,"current target, in next trial",,,,2562
100896,3u6KDvdcuozG32M0arn1,,,,True,,,2,r,,,,,,T_nontarget,3,,1728,100896,1 (575).jpg,0.0-13.0-2.0-0.19,0,True,True,0,,True,True,False,False,False,True,9,9,10,1,0,,,1,,,,,,,,,images/1 (575).jpg,Cn+1,Cn,,20,20,0,,100896,,,initial_study,0,0,21,29,18317,0.31,634,image-keyboard-response,1,0,1,"studied only, in next trial",,,,2562
100896,3vZEG9ht1EKyVEQVNagA,,0,,,,,2,r,False,False,False,,j,T_target,3,,1728,100896,1 (2009).jpg,0.0-23.0-1.0-0.17,0,True,,0,True,,True,False,,True,False,,9,0,8,0,,,,,,,0,,,,,images/1 (2009).jpg,,Dn,,,30,0,,100896,,,finalTest,,8,0,366,24854,0.42,1131,image-keyboard-response,,,,"current target, in next trial",,,,2562
100896,3zXtGGwHOTFkYMZNT1YK,,0,,True,,,2,r,False,False,False,,f,T_foil,3,,1728,100896,1 (1396).jpg,0.0-13.0-10.0-0.1,0,True,False,0,False,False,False,False,True,False,True,9,8,9,,0,,,2,,,,0,,,,,images/1 (1396).jpg,Fnn,Fnn,,0,0,0,,100896,,,initialTest_response,2,0,2,263,18621,0.32,660,image-keyboard-response,0,1,1,"tested only, in next trial, from last trial",,,,2562
100896,43m2PqGXVBfY6HFP8Br5,,,,,,,2,r,,,,,,,3,,1728,100896,,0.0-12.0-3.0-0.0,0,,,0,,,,,,,,,,,,,,,,,,,,,,,,Summing up the digits as they appear,,,,,,,,100896,,,prompt,,,,,17231,0.29,569,html-keyboard-response,,,,,,,,2562
100896,44MFXRvZuWZ3dnjN6qXk,,,,False,,,2,r,,,,,,T_nontarget,3,,1728,100896,1 (112).jpg,0.0-7.0-2.0-0.12,0,True,True,0,,True,True,False,False,False,False,3,3,0,5,0,,,1,,,,,,,,,images/1 (112).jpg,A,A,,13,13,0,,100896,,,initial_study,0,0,0,217,10930,0.19,171,image-keyboard-response,1,0,0,"studied only, not in trial",,,,2562
100896,44RXMdjRiojRyHXUKT8T,,0,,,,,2,r,False,,,,f,F,3,,1728,100896,1 (1313).jpg,0.0-19.0-1.0-0.43,0,True,,0,False,,False,False,,False,False,,0,0,4,2,,,1,,,,0,,,,,images/1 (1313).jpg,,FF,,,0,0,,100896,,,finalTest,,0,0,200,22877,0.39,965,image-keyboard-response,,,,final Foil,,,,2562
100896,4BKLZztGIw2J8RB3HTWr,,,,False,,,2,r,,,,,,T_target,3,,1728,100896,1 (689).jpg,0.0-14.0-2.0-0.29,0,True,True,0,,True,True,False,True,True,False,10,10,0,4,0,,,1,,,,,,,,,images/1 (689).jpg,B,B,,30,30,0,,100896,,,initial_study,8,8,0,191,19625,0.33,720,image-keyboard-response,1,1,0,"current target, not in next trial",,,,2562
100896,4DLU8FuZBSNTGVrNx7Hi,,,,False,,,2,r,,,,,,T_nontarget,3,,1728,100896,1 (1856).jpg,0.0-11.0-2.0-0.27,0,True,True,0,,True,True,False,False,False,False,7,7,0,2,0,,,1,,,,,,,,,images/1 (1856).jpg,A,A,,28,28,0,,100896,,,initial_study,0,0,0,73,15974,0.27,490,image-keyboard-response,1,0,0,"studied only, not in trial",,,,2562
100896,4HOPaTfkzptcdlVworM4,,,,False,,,2,r,,,,,,T_target,3,,1728,100896,1 (896).jpg,0.0-14.0-2.0-0.24,0,True,True,0,,True,True,False,True,True,False,10,10,0,7,0,,,1,,,,,,,,,images/1 (896).jpg,B,B,,25,25,0,,100896,,,initial_study,18,18,0,339,19567,0.33,715,image-keyboard-response,1,1,0,"current target, not in next trial",,,,2562
100896,4OdObjqHRvERPj6oilIo,,,,False,,,2,r,,,,,,T_nontarget,3,,1728,100896,1 (540).jpg,0.0-10.0-2.0-0.11,0,False,True,0,,True,True,False,False,False,False,6,6,0,,0,,,1,,,,,,,,,images/1 (540).jpg,A,A,,12,12,0,,100896,,,initial_study,0,0,0,0,14569,0.25,398,image-keyboard-response,1,0,0,"studied only, not in trial",,,,2562
100896,4QsEloYeXClputsrQLTH,,0,,False,,,2,r,False,False,,,j,T_target,3,,1728,100896,1 (2168).jpg,0.0-12.0-10.0-0.8,0,True,True,0,False,True,True,False,True,True,False,8,8,False,,0,,,1,,,,0,,,,,images/1 (2168).jpg,B,B,,7,7,0,,100896,,,initialTest_response,9,9,0,53,17573,0.30,591,image-keyboard-response,1,1,0,"current target, not in next trial",,,,2562
100896,4S3tFZKSOwcZzgV76Smy,,0,,,,,2,r,False,,,,j,T_target,3,,1728,100896,1 (499).jpg,0.0-20.0-1.0-0.10,0,True,,0,True,,True,False,,True,False,,10,0,5,0,,,,,,,0,,,,,images/1 (499).jpg,,B,,,27,0,,100896,,,finalTest,,17,0,215,23061,0.39,980,image-keyboard-response,,,,"current target, not in next trial",,,,2562
100896,4TUiEcCX56Hy9bxokqMr,,,,False,,,2,r,,,,,,T_target,3,,1728,100896,1 (183).jpg,0.0-12.0-2.0-0.22,0,True,True,0,,True,True,False,True,True,False,8,8,0,8,0,,,1,,,,,,,,,images/1 (183).jpg,B,B,,23,23,0,,100896,,,initial_study,7,7,0,372,17138,0.29,561,image-keyboard-response,1,1,0,"current target, not in next trial",,,,2562
100896,4UmxpURfYTolkwNzlzjN,,0,,,,,2,r,False,,,,j,T_target,3,,1728,100896,1 (1637).jpg,0.0-23.0-1.0-0.47,0,True,,0,True,,True,False,,True,False,,7,0,8,0,,,,,,,0,,,,,images/1 (1637).jpg,,B,,,20,0,,100896,,,finalTest,,30,0,396,25214,0.43,1161,image-keyboard-response,,,,"current target, not in next trial",,,,2562
100896,4XdMGyD6LMU79ZDJ62W9,,,,False,,,2,r,,,,,,T_target,3,,1728,100896,1 (2244).jpg,0.0-12.0-2.0-0.26,0,False,True,0,,True,True,False,True,True,False,8,8,0,,0,,,1,,,,,,,,,images/1 (2244).jpg,B,B,,27,27,0,,100896,,,initial_study,1,1,0,0,17185,0.29,565,image-keyboard-response,1,1,0,"current target, not in next trial",,,,2562
100896,4ahqGUBYM6MeyPMbJupR,,0,,,,,2,r,False,,,,j,T_target,3,,1728,100896,1 (1251).jpg,0.0-18.0-1.0-0.12,0,True,,0,True,,True,False,,True,False,,4,0,3,0,,,,,,,0,,,,,images/1 (1251).jpg,,B,,,13,0,,100896,,,finalTest,,5,0,121,21935,0.37,886,image-keyboard-response,,,,"current target, not in next trial",,,,2562
100896,4cJuag5gqMphcftCQPXZ,,,,False,,,2,r,,,,,,T_nontarget,3,,1728,100896,1 (2281).jpg,0.0-5.0-2.0-0.21,0,False,True,0,,True,True,False,False,False,False,1,1,0,,0,,,1,,,,,,,,,images/1 (2281).jpg,A,A,,22,22,0,,100896,,,initial_study,0,0,0,0,8599,0.15,28,image-keyboard-response,1,0,0,"studied only, not in trial",,,,2562
100896,4ea4apS4DoD6gRG2bF4u,,0,,False,,,2,r,False,False,,,j,T_target,3,,1728,100896,1 (649).jpg,0.0-13.0-10.0-0.22,0,True,True,0,False,True,True,False,True,True,False,9,9,False,,0,,,1,,,,0,,,,,images/1 (649).jpg,B,B,,19,19,0,,100896,,,initialTest_response,23,23,0,88,19095,0.32,681,image-keyboard-response,1,1,0,"current target, not in next trial",,,,2562
100896,4fWGSV5jlR9QKgfirxVh,,0,,,,,2,r,False,,,,f,F,3,,1728,100896,1 (845).jpg,0.0-24.0-1.0-0.34,0,True,,0,False,,False,False,,False,False,,0,0,9,2,,,1,,,,0,,,,,images/1 (845).jpg,,FF,,,0,0,,100896,,,finalTest,,0,0,431,25633,0.43,1196,image-keyboard-response,,,,final Foil,,,,2562
100896,4qj7aQDHI6DioIsdonAg,,,,False,,,2,r,,,,,,T_nontarget,3,,1728,100896,1 (1023).jpg,0.0-12.0-2.0-0.14,0,True,True,0,,True,True,False,False,False,False,8,8,0,8,0,,,1,,,,,,,,,images/1 (1023).jpg,A,A,,15,15,0,,100896,,,initial_study,0,0,0,391,17031,0.29,553,image-keyboard-response,1,0,0,"studied only, not in trial",,,,2562
100896,4u8CVXXQMEXKzQjt36vp,,0,,False,,,2,r,False,False,,,j,T_target,3,,1728,100896,1 (1758).jpg,0.0-10.0-10.0-0.14,0,True,True,0,False,True,True,False,True,True,False,6,6,False,,0,,,1,,,,0,,,,,images/1 (1758).jpg,B,B,,19,19,0,,100896,,,initialTest_response,15,15,0,100,15264,0.26,445,image-keyboard-response,1,1,0,"current target, not in next trial",,,,2562
100896,4yeUDzlaA6ibsniOf12E,,0,,False,,,2,r,False,False,,,j,T_target,3,,1728,100896,1 (1915).jpg,0.0-7.0-10.0-0.29,0,False,True,0,False,True,True,False,True,True,False,3,3,False,,0,,,1,,,,0,,,,,images/1 (1915).jpg,B,B,,14,14,0,,100896,,,initialTest_response,30,30,0,0,11949,0.20,232,image-keyboard-response,1,1,0,"current target, not in next trial",,,,2562
100896,4zfLrtp1XTn7cgDrtXPr,,0,,,,,2,r,False,,,,j,T_nontarget,3,,1728,100896,1 (1348).jpg,0.0-19.0-1.0-0.17,0,True,,0,True,,True,False,,False,False,,10,0,4,0,,,,,,,0,,,,,images/1 (1348).jpg,,A,,,22,0,,100896,,,finalTest,,0,0,174,22566,0.38,939,image-keyboard-response,,,,"studied only, not in trial",,,,2562
100896,53T7SLNvYPGbj5aEwm4T,,,,False,,,2,r,,,,,,T_nontarget,3,,1728,100896,1 (1530).jpg,0.0-12.0-2.0-0.7,0,False,True,0,,True,True,False,False,False,False,8,8,0,,0,,,1,,,,,,,,,images/1 (1530).jpg,A,A,,8,8,0,,100896,,,initial_study,0,0,0,0,16945,0.29,546,image-keyboard-response,1,0,0,"studied only, not in trial",,,,2562
100896,56rny26islDpQdwvtUWC,,0,,,,,2,r,False,,,,f,F,3,,1728,100896,1 (1141).jpg,0.0-19.0-1.0-0.44,0,True,,0,False,,False,False,,False,False,,0,0,4,6,,,1,,,,0,,,,,images/1 (1141).jpg,,FF,,,0,0,,100896,,,finalTest,,0,0,201,22888,0.39,966,image-keyboard-response,,,,final Foil,,,,2562
100896,577haO0mszmLr8uy0y8k,,0,,,,,2,r,False,,,,f,F,3,,1728,100896,1 (1047).jpg,0.0-21.0-1.0-0.14,0,True,,0,False,,False,False,,False,False,,0,0,6,5,,,1,,,,0,,,,,images/1 (1047).jpg,,FF,,,0,0,,100896,,,finalTest,,0,0,267,23674,0.40,1032,image-keyboard-response,,,,final Foil,,,,2562
100896,5AJdhHqGyIdIr2iKaIy2,,0,,False,,,2,r,False,False,,,j,T_target,3,,1728,100896,1 (1433).jpg,0.0-6.0-10.0-0.21,0,True,True,0,False,True,True,False,True,True,False,2,2,False,,0,,,1,,,,0,,,,,images/1 (1433).jpg,B,B,,3,3,0,,100896,,,initialTest_response,22,22,0,356,10564,0.18,148,image-keyboard-response,1,1,0,"current target, not in next trial",,,,2562
100896,5ALaRIO4wxtMqxtEXOJj,,,,,,,2,r,,,,,,,3,,1728,100896,,0.0-14.0-5.0-0.0,0,,,0,,,,,,,,10,,,,,,,,,1,,,,,,,9,,,9,,,,,100896,,57,digitPresentation,,,,,19657,0.33,723,html-keyboard-response,,,,,,,,2562
100896,5Aj4PFT3yL9sqPwHJoDK,,,,False,,,2,r,,,,,,T_target,3,,1728,100896,1 (1819).jpg,0.0-10.0-2.0-0.26,0,False,True,0,,True,True,False,True,True,False,6,6,0,,0,,,1,,,,,,,,,images/1 (1819).jpg,B,B,,27,27,0,,100896,,,initial_study,28,28,0,0,14742,0.25,413,image-keyboard-response,1,1,0,"current target, not in next trial",,,,2562
100896,5FEY4JbgsYAVubq3GLPA,,,,True,,,2,r,,,,,,T_nontarget,3,,1728,100896,1 (2039).jpg,0.0-11.0-2.0-0.13,0,True,True,0,,True,True,False,False,False,True,7,7,8,1,0,,,1,,,,,,,,,images/1 (2039).jpg,Cn+1,Cn,,14,14,0,,100896,,,initial_study,0,0,29,20,15805,0.27,476,image-keyboard-response,1,0,1,"studied only, in next trial",,,,2562
100896,5FT57IVa1lSmGHeqhI9b,,0,,True,,,2,r,False,False,,,j,T_target,3,,1728,100896,1 (684).jpg,0.0-12.0-10.0-0.20,0,False,True,0,False,True,True,False,True,True,True,8,8,9,,0,,,1,,,,0,,,,,images/1 (684).jpg,Dn+1,Dn,,26,26,0,,100896,,,initialTest_response,21,21,28,0,17847,0.30,603,image-keyboard-response,1,1,1,"current target, in next trial",,,,2562
100896,5KsPZsU3xph4LBUU8pd2,,0,,,,,2,r,False,,,,j,T_foil,3,,1728,100896,1 (1914).jpg,0.0-16.0-1.0-0.58,0,True,,0,True,,False,False,,True,False,,5,False,1,5,,,,,,,0,,,,,images/1 (1914).jpg,,Fn,,,0,0,,100896,,,finalTest,,29,0,59,21177,0.36,824,image-keyboard-response,,,,"tested only, not in next trial",,,,2562
100896,5SVrkF0eZ2Zg2IPG1tJh,,0,,,,,2,r,False,,,,f,F,3,,1728,100896,1 (340).jpg,0.0-18.0-1.0-0.2,0,True,,0,False,,False,False,,False,False,,0,0,3,0,,,1,,,,0,,,,,images/1 (340).jpg,,FF,,,0,0,,100896,,,finalTest,,0,0,111,21818,0.37,876,image-keyboard-response,,,,final Foil,,,,2562
100896,5UT7AJyVKUY9FrsGHrFM,,,,True,,,2,r,,,,,,T_target,3,,1728,100896,1 (2206).jpg,0.0-10.0-2.0-0.24,0,True,True,0,,True,True,False,True,True,True,6,6,7,10,0,,,1,,,,,,,,,images/1 (2206).jpg,Dn+1,Dn,,25,25,0,,100896,,,initial_study,24,24,10,455,14720,0.25,411,image-keyboard-response,1,1,1,"current target, in next trial",,,,2562
100896,5Vxvy7LkhAsro3QBkry8,,0,,,,,2,r,False,False,False,,j,T_target,3,,1728,100896,1 (2355).jpg,0.0-19.0-1.0-0.45,0,True,,0,True,,True,False,,True,True,,2,3,4,0,,,,,,,0,,,,,images/1 (2355).jpg,,Dn,,,26,0,,100896,,,finalTest,,18,18,202,22900,0.39,967,image-keyboard-response,,,,"current target, in next trial",,,,2562
100896,5WADMqhoffFLLJXT7rMs,,0,,,,,2,r,False,,,,f,F,3,,1728,100896,1 (2146).jpg,0.0-18.0-1.0-0.36,0,True,,0,False,,False,False,,False,False,,0,0,3,6,,,1,,,,0,,,,,images/1 (2146).jpg,,FF,,,0,0,,100896,,,finalTest,,0,0,145,22217,0.38,910,image-keyboard-response,,,,final Foil,,,,2562
100896,5Y5HHS16MzKgxNDTiS6i,,0,,,,,2,r,False,,,,j,T_nontarget,3,,1728,100896,1 (1586).jpg,0.0-22.0-1.0-0.27,0,True,,0,True,,True,False,,False,False,,3,0,7,0,,,,,,,0,,,,,images/1 (1586).jpg,,A,,,26,0,,100896,,,finalTest,,0,0,328,24404,0.41,1093,image-keyboard-response,,,,"studied only, not in trial",,,,2562
100896,5ZGhRry7sQizVW0BFSHo,,0,,,,,2,r,False,,,,j,T_target,3,,1728,100896,1 (1131).jpg,0.0-18.0-1.0-0.9,0,True,,0,True,,True,False,,True,False,,1,0,3,0,,,,,,,0,,,,,images/1 (1131).jpg,,B,,,23,0,,100896,,,finalTest,,6,0,118,21899,0.37,883,image-keyboard-response,,,,"current target, not in next trial",,,,2562
100896,5cGaYUyQdO6wVgrtZWpW,,0,,,,,2,r,False,,,,j,T_nontarget,3,,1728,100896,1 (1862).jpg,0.0-16.0-1.0-0.45,0,True,,0,True,,True,False,,False,False,,5,0,1,0,,,,,,,0,,,,,images/1 (1862).jpg,,A,,,3,0,,100896,,,finalTest,,0,0,46,21024,0.36,811,image-keyboard-response,,,,"studied only, not in trial",,,,2562
100896,5deRB1w7jUx8R2EYnEYu,,,,False,,,2,r,,,,,,T_target,3,,1728,100896,1 (973).jpg,0.0-11.0-2.0-0.15,0,True,True,0,,True,True,False,True,True,False,7,7,0,3,0,,,1,,,,,,,,,images/1 (973).jpg,B,B,,16,16,0,,100896,,,initial_study,19,19,0,147,15828,0.27,478,image-keyboard-response,1,1,0,"current target, not in next trial",,,,2562
100896,5f7bPDp51PaKMPMo2qdt,,,,,,,2,r,,,,,,,3,,1728,100896,,0.0-12.0-7.0-0.0,0,,,0,,,,,,,,,,,,,,,,,,,,,,,,<p background:white>INCORRECT!</p>,,,,,,,,100896,,,promptfeedback,,,,,17359,0.29,580,html-keyboard-response,,,,,,,,2562
100896,5gUl0Gn098ckFT1lIxUj,,,,False,,,2,r,,,,,,T_target,3,,1728,100896,1 (2145).jpg,0.0-13.0-2.0-0.26,0,True,True,0,,True,True,False,True,True,False,9,9,0,6,0,,,1,,,,,,,,,images/1 (2145).jpg,B,B,,27,27,0,,100896,,,initial_study,29,29,0,299,18397,0.31,641,image-keyboard-response,1,1,0,"current target, not in next trial",,,,2562
100896,5guvn1DCw9x8KwqsCBby,,0,,,,,2,r,False,,,,j,T_target,3,,1728,100896,1 (185).jpg,0.0-16.0-1.0-0.23,0,True,,0,True,,True,False,,True,False,,5,0,1,0,,,,,,,0,,,,,images/1 (185).jpg,,B,,,21,0,,100896,,,finalTest,,17,0,24,20764,0.35,789,image-keyboard-response,,,,"current target, not in next trial",,,,2562
100896,5lEFupOAptMfdtn9G94b,,0,,,,,2,r,False,,,,j,T_nontarget,3,,1728,100896,1 (1300).jpg,0.0-21.0-1.0-0.38,0,True,,0,True,,True,False,,False,False,,5,0,6,0,,,,,,,0,,,,,images/1 (1300).jpg,,A,,,4,0,,100896,,,finalTest,,0,0,291,23954,0.40,1056,image-keyboard-response,,,,"studied only, not in trial",,,,2562
100896,5m2QEUbVh9JVHxccifPa,,,,False,,,2,r,,,,,,T_target,3,,1728,100896,1 (833).jpg,0.0-10.0-2.0-0.27,0,True,True,0,,True,True,False,True,True,False,6,6,0,4,0,,,1,,,,,,,,,images/1 (833).jpg,B,B,,28,28,0,,100896,,,initial_study,6,6,0,184,14754,0.25,414,image-keyboard-response,1,1,0,"current target, not in next trial",,,,2562
100896,5nWZlNztlY3ZDqXZRm3f,,0,,,,,2,r,False,,,,f,F,3,,1728,100896,1 (1086).jpg,0.0-22.0-1.0-0.7,0,True,,0,False,,False,False,,False,False,,0,0,7,7,,,1,,,,0,,,,,images/1 (1086).jpg,,FF,,,0,0,,100896,,,finalTest,,0,0,308,24152,0.41,1073,image-keyboard-response,,,,final Foil,,,,2562
100896,5uXbD3zjhMULKljXDkIs,,0,,False,,,2,r,False,False,,,j,T_target,3,,1728,100896,1 (2369).jpg,0.0-6.0-10.0-0.22,0,False,True,0,False,True,True,False,True,True,False,2,2,False,,0,,,1,,,,0,,,,,images/1 (2369).jpg,B,B,,12,12,0,,100896,,,initialTest_response,23,23,0,0,10586,0.18,149,image-keyboard-response,1,1,0,"current target, not in next trial",,,,2562
100896,5v7aakWbcjEDdjIS2cym,,0,,,,,2,r,False,,,,j,T_target,3,,1728,100896,1 (2015).jpg,0.0-20.0-1.0-0.32,0,True,,0,True,,True,False,,True,False,,7,0,5,0,,,,,,,0,,,,,images/1 (2015).jpg,,B,,,19,0,,100896,,,finalTest,,7,0,237,23321,0.39,1002,image-keyboard-response,,,,"current target, not in next trial",,,,2562
100896,65nshPA6uRvWbeofjTqf,,0,,,,,2,r,False,,,,f,F,3,,1728,100896,1 (1967).jpg,0.0-21.0-1.0-0.1,0,True,,0,False,,False,False,,False,False,,0,0,6,4,,,1,,,,0,,,,,images/1 (1967).jpg,,FF,,,0,0,,100896,,,finalTest,,0,0,254,23523,0.40,1019,image-keyboard-response,,,,final Foil,,,,2562
100896,66YLnxqRkhOnXkHO6ImT,,0,,True,,,2,r,False,False,False,,f,T_foil,3,,1728,100896,1 (1042).jpg,0.0-11.0-10.0-0.14,0,True,False,0,False,False,False,False,True,False,True,7,6,7,,0,,,2,,,,0,,,,,images/1 (1042).jpg,Fnn,Fnn,,0,0,0,,100896,,,initialTest_response,15,0,15,481,16483,0.28,521,image-keyboard-response,0,1,1,"tested only, in next trial, from last trial",,,,2562
100896,682Ba8cNRClpcoRxvB9K,,,,False,,,2,r,,,,,,T_nontarget,3,,1728,100896,1 (713).jpg,0.0-14.0-2.0-0.14,0,False,True,0,,True,True,False,False,False,False,10,10,0,,0,,,1,,,,,,,,,images/1 (713).jpg,A,A,,15,15,0,,100896,,,initial_study,0,0,0,0,19452,0.33,705,image-keyboard-response,1,0,0,"studied only, not in trial",,,,2562
100896,68Mm8IfmXPEYB0pWPdhp,,,,,,,2,r,,,,,,,3,,1728,100896,,0.0-6.0-8.0-0.0,0,,,0,,,,,,,,,,,,,,,,,,,,,,,,Now judge if you have seen this pictures from the list you JUST studied before the digits,,,,,,,,100896,,,prompt,,,,,10054,0.17,125,html-keyboard-response,,,,,,,,2562
100896,68YYfK1ajTGEz0PzFprC,,,,False,,,2,r,,,,,,T_nontarget,3,,1728,100896,1 (1584).jpg,0.0-9.0-2.0-0.17,0,False,True,0,,True,True,False,False,False,False,5,5,0,,0,,,1,,,,,,,,,images/1 (1584).jpg,A,A,,18,18,0,,100896,,,initial_study,0,0,0,0,13402,0.23,328,image-keyboard-response,1,0,0,"studied only, not in trial",,,,2562
100896,6AMc4J29Gn1Lw9V0s4nE,,0,,False,,,2,r,False,False,,,j,T_target,3,,1728,100896,1 (1106).jpg,0.0-9.0-10.0-0.29,0,False,True,0,False,True,True,False,True,True,False,5,5,False,,0,,,1,,,,0,,,,,images/1 (1106).jpg,B,B,,29,29,0,,100896,,,initialTest_response,30,30,0,0,14391,0.25,384,image-keyboard-response,1,1,0,"current target, not in next trial",,,,2562
100896,6C48JqnQa3w5G9ieud49,,0,,,,,2,r,False,,,,j,T_nontarget,3,,1728,100896,1 (151).jpg,0.0-20.0-1.0-0.23,0,True,,0,True,,True,False,,False,False,,8,0,5,0,,,,,,,0,,,,,images/1 (151).jpg,,A,,,11,0,,100896,,,finalTest,,0,0,228,23216,0.39,993,image-keyboard-response,,,,"studied only, not in trial",,,,2562
100896,6F6kCQtLRSOB5PLGHfY4,,,,,,,2,r,,,,,,,3,,1728,100896,,0.0-10.0-0.0-0.0,0,,,0,,,,,,,,,,,,,,,,,,,,,,,,"
    <p style='text-align: justify;color: black;background: white;font: caption-;''>
        Press the 'enter' key to see the next list of pictures. </p>
    ",,,,,,,,100896,,,,,,,,14412,0.25,385,html-keyboard-response,,,,,,,,2562
100896,6FqXMbTXkMabNzfxj37k,,0,,False,,,2,r,False,False,,,j,T_target,3,,1728,100896,1 (2145).jpg,0.0-13.0-10.0-0.28,0,True,True,0,False,True,True,False,True,True,False,9,9,False,,0,,,1,,,,0,,,,,images/1 (2145).jpg,B,B,,27,27,0,,100896,,,initialTest_response,29,29,0,299,19226,0.33,687,image-keyboard-response,1,1,0,"current target, not in next trial",,,,2562
100896,6G1InoiUn9IHrtma8GER,,,,False,,,2,r,,,,,,T_target,3,,1728,100896,1 (2390).jpg,0.0-6.0-2.0-0.1,0,True,True,0,,True,True,False,True,True,False,2,2,0,9,0,,,1,,,,,,,,,images/1 (2390).jpg,B,B,,2,2,0,,100896,,,initial_study,9,9,0,420,9567,0.16,84,image-keyboard-response,1,1,0,"current target, not in next trial",,,,2562
100896,6LSBPESkvUZt8Wlz5HGi,,,,True,,,2,r,,,,,,T_nontarget,3,,1728,100896,1 (565).jpg,0.0-12.0-2.0-0.17,0,False,True,0,,True,True,False,False,False,True,8,8,9,,0,,,1,,,,,,,,,images/1 (565).jpg,Cn+1,Cn,,18,18,0,,100896,,,initial_study,0,0,22,0,17065,0.29,556,image-keyboard-response,1,0,1,"studied only, in next trial",,,,2562
100896,6PtzlDLUWqtowHaEldkx,,,,,,,2,r,,,,,,,3,,1728,100896,,0.0-7.0-5.0-0.6,0,,,0,,,,,,,,3,,,,,,,,,7,,,,,,,8,,,8,,,,,100896,,57,digitPresentation,,,,,11235,0.19,197,html-keyboard-response,,,,,,,,2562
100896,6RATTdjBm4ByzM8um5OK,,0,,True,,,2,r,False,False,,,f,T_foil,3,,1728,100896,1 (1341).jpg,0.0-12.0-10.0-0.18,0,False,True,0,False,False,False,False,True,True,True,8,8,9,,0,,,1,,,,0,,,,,images/1 (1341).jpg,Fnn+1,Fnn,,0,0,0,,100896,,,initialTest_response,19,19,18,0,17798,0.30,601,image-keyboard-response,0,1,1,"tested only, in next trial",,,,2562
100896,6Sb6W4he6xoHSzBao9JT,,0,,,,,2,r,False,,,,j,T_nontarget,3,,1728,100896,1 (1732).jpg,0.0-22.0-1.0-0.20,0,True,,0,True,,True,False,,False,False,,3,0,7,0,,,,,,,0,,,,,images/1 (1732).jpg,,A,,,4,0,,100896,,,finalTest,,0,0,321,24304,0.41,1086,image-keyboard-response,,,,"studied only, not in trial",,,,2562
100896,6URSHo7BRL6UewEiOPNA,,0,,,,,2,r,False,,,,f,F,3,,1728,100896,1 (184).jpg,0.0-18.0-1.0-0.42,0,True,,0,False,,False,False,,False,False,,0,0,3,9,,,1,,,,0,,,,,images/1 (184).jpg,,FF,,,0,0,,100896,,,finalTest,,0,0,151,22288,0.38,916,image-keyboard-response,,,,final Foil,,,,2562
100896,6WM2nja3RfKN8ogMmCzT,,0,,,,,2,r,False,,,,f,F,3,,1728,100896,1 (1334).jpg,0.0-24.0-1.0-0.16,0,True,,0,False,,False,False,,False,False,,0,0,9,1,,,1,,,,0,,,,,images/1 (1334).jpg,,FF,,,0,0,,100896,,,finalTest,,0,0,413,25415,0.43,1178,image-keyboard-response,,,,final Foil,,,,2562
100896,6dhl0WymLjvPqCQE4Jw1,,0,,True,,,2,r,False,False,False,,f,T_foil,3,,1728,100896,1 (160).jpg,0.0-14.0-10.0-0.11,0,False,False,0,False,False,True,False,True,True,False,10,9,0,,0,,,2,,,,0,,,,,images/1 (160).jpg,Dn,Dn,,0,17,0,,100896,,,initialTest_response,12,17,0,0,20038,0.34,746,image-keyboard-response,1,1,1,"current target, in next trial, from last trial",,,,2562
100896,6hMVFgNBa2RSqJkufr1v,,0,,False,,,2,r,False,False,,,j,T_target,3,,1728,100896,1 (1274).jpg,0.0-8.0-10.0-0.25,0,True,True,0,False,True,True,False,True,True,False,4,4,False,,0,,,1,,,,0,,,,,images/1 (1274).jpg,B,B,,30,30,0,,100896,,,initialTest_response,26,26,0,418,13065,0.22,304,image-keyboard-response,1,1,0,"current target, not in next trial",,,,2562
100896,6jhzhOlqM7fxMXl8zpfK,,,,,,,2,r,False,,,43,,,3,,1728,100896,,0.0-11.0-6.0-0.0-0.0,0,,,0,,,,,,,,,,,,,,,,,,,,"{'answer': 'Skipped after 0.01 seconds', 'question': ""Please enter the sum using your number keyboard <p>Press 'enter' to continue.</p>""}",Please enter the sum using your number keyboard <p>Press 'enter' to continue.</p>,,,,,,,,,,,100896,,,answer_counting,,,,,16125,0.27,503,survey-text,,,,,,,,2562
100896,6mVd5ht13YfNZWbDpse7,,0,,,,,2,r,False,,,,f,F,3,,1728,100896,1 (223).jpg,0.0-23.0-1.0-0.0,0,True,,0,False,,False,False,,False,False,,0,0,8,1,,,1,,,,0,,,,,images/1 (223).jpg,,FF,,,0,0,,100896,,,finalTest,,0,0,349,24653,0.42,1114,image-keyboard-response,,,,final Foil,,,,2562
100896,6pJ3sh7Yj8GHNNvfFI0M,,,,,,,2,r,,,,,,,3,,1728,100896,,0.0-6.0-5.0-0.5,0,,,0,,,,,,,,2,,,,,,,,,6,,,,,,,7,,,7,,,,,100896,,52,digitPresentation,,,,,9996,0.17,120,html-keyboard-response,,,,,,,,2562
100896,6qtAhcG8vZnJuGG6Mqhf,,0,,,,,2,r,False,,,,j,T_nontarget,3,,1728,100896,1 (2170).jpg,0.0-22.0-1.0-0.19,0,True,,0,True,,True,False,,False,False,,7,0,7,0,,,,,,,0,,,,,images/1 (2170).jpg,,A,,,1,0,,100896,,,finalTest,,0,0,320,24292,0.41,1085,image-keyboard-response,,,,"studied only, not in trial",,,,2562
100896,6shBo04lGb7mqEvWmkf2,,,,True,,,2,r,,,,,,T_target,3,,1728,100896,1 (667).jpg,0.0-12.0-2.0-0.18,0,True,True,0,,True,True,False,True,True,True,8,8,9,9,0,,,1,,,,,,,,,images/1 (667).jpg,Dn+1,Dn,,19,19,0,,100896,,,initial_study,3,3,20,432,17076,0.29,557,image-keyboard-response,1,1,1,"current target, in next trial",,,,2562
100896,6swRweBl5DWOrhuVoA9C,,,,,,,2,r,,,,,,,3,,1728,100896,,0.0-5.0-8.0-0.0,0,,,0,,,,,,,,,,,,,,,,,,,,,,,,Now judge if you have seen this pictures from the list you JUST studied before the digits,,,,,,,,100896,,,prompt,,,,,8836,0.15,49,html-keyboard-response,,,,,,,,2562
100896,6tmw9WQ1ueAqA8GVGpTJ,,0,,False,,,2,r,False,False,,,j,T_target,3,,1728,100896,1 (2201).jpg,0.0-7.0-10.0-0.10,0,True,True,0,False,True,True,False,True,True,False,3,3,False,,0,,,1,,,,0,,,,,images/1 (2201).jpg,B,B,,2,2,0,,100896,,,initialTest_response,11,11,0,463,11527,0.20,213,image-keyboard-response,1,1,0,"current target, not in next trial",,,,2562
100896,6zAsyNd7Yg8A34Xbf7qH,,0,,False,,,2,r,False,False,,,j,T_target,3,,1728,100896,1 (2156).jpg,0.0-14.0-10.0-0.23,0,False,True,0,False,True,True,False,True,True,False,10,10,0,,0,,,1,,,,0,,,,,images/1 (2156).jpg,B,B,,11,11,0,,100896,,,initialTest_response,24,24,0,0,20306,0.34,758,image-keyboard-response,1,1,0,"current target, not in next trial",,,,2562
100896,6zZafOFt5uqI2Rae1gVf,,,,False,,,2,r,,,,,,T_target,3,,1728,100896,1 (2369).jpg,0.0-6.0-2.0-0.11,0,False,True,0,,True,True,False,True,True,False,2,2,0,,0,,,1,,,,,,,,,images/1 (2369).jpg,B,B,,12,12,0,,100896,,,initial_study,23,23,0,0,9688,0.17,94,image-keyboard-response,1,1,0,"current target, not in next trial",,,,2562
100896,70lsOYYlwEf9n8YzMOJp,,,,False,,,2,r,,,,,,T_target,3,,1728,100896,1 (1438).jpg,0.0-9.0-2.0-0.8,0,True,True,0,,True,True,False,True,True,False,5,5,0,5,0,,,1,,,,,,,,,images/1 (1438).jpg,B,B,,9,9,0,,100896,,,initial_study,21,21,0,243,13296,0.23,319,image-keyboard-response,1,1,0,"current target, not in next trial",,,,2562
100896,76prbwCvnJMnsYiHp0sL,,0,,False,,,2,r,False,False,,,j,T_target,3,,1728,100896,1 (768).jpg,0.0-12.0-10.0-0.7,0,True,True,0,False,True,True,False,True,True,False,8,8,False,,0,,,1,,,,0,,,,,images/1 (768).jpg,B,B,,20,20,0,,100896,,,initialTest_response,8,8,0,256,17551,0.30,590,image-keyboard-response,1,1,0,"current target, not in next trial",,,,2562
100896,77PII0uFMXUFVVYcwjrd,,,,False,,,2,r,,,,,,T_nontarget,3,,1728,100896,1 (637).jpg,0.0-8.0-2.0-0.25,0,True,True,0,,True,True,False,False,False,False,4,4,0,6,0,,,1,,,,,,,,,images/1 (637).jpg,A,A,,26,26,0,,100896,,,initial_study,0,0,0,294,12288,0.21,260,image-keyboard-response,1,0,0,"studied only, not in trial",,,,2562
100896,78PRdP6GzluhafEEQJWV,,0,,,,,2,r,False,,,,f,F,3,,1728,100896,1 (2263).jpg,0.0-18.0-1.0-0.7,0,True,,0,False,,False,False,,False,False,,0,0,3,9,,,1,,,,0,,,,,images/1 (2263).jpg,,FF,,,0,0,,100896,,,finalTest,,0,0,116,21877,0.37,881,image-keyboard-response,,,,final Foil,,,,2562
100896,7A5GFUCs1xCZn5ObfSIw,,,,False,,,2,r,,,,,,T_target,3,,1728,100896,1 (1426).jpg,0.0-6.0-2.0-0.16,0,True,True,0,,True,True,False,True,True,False,2,2,0,6,0,,,1,,,,,,,,,images/1 (1426).jpg,B,B,,17,17,0,,100896,,,initial_study,16,16,0,269,9747,0.17,99,image-keyboard-response,1,1,0,"current target, not in next trial",,,,2562
100896,7H07QxwrlHf14h0rQTr4,,0,,False,,,2,r,False,False,,,j,T_target,3,,1728,100896,1 (1115).jpg,0.0-7.0-10.0-0.19,0,True,True,0,False,True,True,False,True,True,False,3,3,False,,0,,,1,,,,0,,,,,images/1 (1115).jpg,B,B,,27,27,0,,100896,,,initialTest_response,20,20,0,448,11728,0.20,222,image-keyboard-response,1,1,0,"current target, not in next trial",,,,2562
100896,7MWuyrWPEJlOPCxvGMIg,,,,True,,,2,r,,,,,,T_nontarget,3,,1728,100896,1 (2317).jpg,0.0-14.0-2.0-0.27,0,True,True,0,,True,True,False,False,False,False,10,10,0,7,0,,,1,,,,,,,,,images/1 (2317).jpg,Cn+1,Cn,,28,28,0,,100896,,,initial_study,0,0,0,323,19602,0.33,718,image-keyboard-response,1,0,1,"studied only, in next trial",,,,2562
100896,7Rh7y6paVUzdOS0nf6PG,,,,,,,2,r,,,,,,,3,,1728,100896,,0.0-6.0-5.0-0.7,0,,,0,,,,,,,,2,,,,,,,,,8,,,,,,,4,,,4,,,,,100896,,52,digitPresentation,,,,,10017,0.17,122,html-keyboard-response,,,,,,,,2562
100896,7WLNegp2hUz7ZFQEHQMw,,0,,,,,2,r,False,,,,f,F,3,,1728,100896,1 (559).jpg,0.0-23.0-1.0-0.43,0,True,,0,False,,False,False,,False,False,,0,0,8,1,,,1,,,,0,,,,,images/1 (559).jpg,,FF,,,0,0,,100896,,,finalTest,,0,0,392,25162,0.42,1157,image-keyboard-response,,,,final Foil,,,,2562
100896,7WlHYyXxKv2J8hQqKlrw,,,,False,,,2,r,,,,,,T_target,3,,1728,100896,1 (775).jpg,0.0-9.0-2.0-0.7,0,False,True,0,,True,True,False,True,True,False,5,5,0,,0,,,1,,,,,,,,,images/1 (775).jpg,B,B,,8,8,0,,100896,,,initial_study,22,22,0,0,13283,0.23,318,image-keyboard-response,1,1,0,"current target, not in next trial",,,,2562
100896,7X4CSgz4JnWxQv6DHaI8,,,,,,,2,r,,,,,,,3,,1728,100896,,0.0-14.0-9.0-0.0,0,,,0,,,,,,,,,,,,,,,,,,,,,,,,"<div style=""font-size:60px;"">+</div>",,,,,,,,100896,,,fixation,,,,,19779,0.34,734,html-keyboard-response,,,,,,,,2562
100896,7ZTj2BKXisSHJTAGmzKf,,0,,,,,2,r,False,,,,j,T_target,3,,1728,100896,1 (1758).jpg,0.0-17.0-1.0-0.39,0,True,,0,True,,True,False,,True,False,,6,0,2,0,,,,,,,0,,,,,images/1 (1758).jpg,,B,,,19,0,,100896,,,finalTest,,15,0,100,21674,0.37,865,image-keyboard-response,,,,"current target, not in next trial",,,,2562
100896,7cGbCSFjZvmwiT77H8Hy,,,,,,,2,r,False,,,49,,,3,,1728,100896,,0.0-5.0-6.0-0.0-0.0,0,,,0,,,,,,,,,,,,,,,,,,,,"{'answer': 'Skipped after 0.01 seconds', 'question': ""Please enter the sum using your number keyboard <p>Press 'enter' to continue.</p>""}",Please enter the sum using your number keyboard <p>Press 'enter' to continue.</p>,,,,,,,,,,,100896,,,answer_counting,,,,,8814,0.15,47,survey-text,,,,,,,,2562
100896,7n4cZCS5vd487aRPIRl4,,0,,False,,,2,r,False,False,,,f,T_foil,3,,1728,100896,1 (1640).jpg,0.0-14.0-10.0-0.28,0,False,True,0,False,False,False,False,True,True,False,10,10,0,,0,,,1,,,,0,,,,,images/1 (1640).jpg,Fn+1,Fn,,0,0,0,,100896,,,initialTest_response,29,29,0,0,20426,0.35,763,image-keyboard-response,0,1,0,"tested only, not in next trial",,,,2562
100896,7tJhjJ3Aa9pFAe08fQzn,,0,,True,,,2,r,False,False,,,f,T_foil,3,,1728,100896,1 (2396).jpg,0.0-14.0-10.0-0.8,0,True,True,0,False,False,False,False,True,True,False,10,10,0,8,0,,,1,,,,0,,,,,images/1 (2396).jpg,Fnn+1,Fnn,,0,0,0,,100896,,,initialTest_response,9,9,0,367,19973,0.34,743,image-keyboard-response,0,1,1,"tested only, in next trial",,,,2562
100896,7yhNCdHiYb0dC8LE6sgs,,,,False,,,2,r,,,,,,T_target,3,,1728,100896,1 (1274).jpg,0.0-8.0-2.0-0.29,0,True,True,0,,True,True,False,True,True,False,4,4,0,9,0,,,1,,,,,,,,,images/1 (1274).jpg,B,B,,30,30,0,,100896,,,initial_study,26,26,0,418,12333,0.21,264,image-keyboard-response,1,1,0,"current target, not in next trial",,,,2562
100896,80pCVLkAQ3FPe5AvFsSr,,0,,True,,,2,r,False,False,False,,f,T_foil,3,,1728,100896,1 (1083).jpg,0.0-14.0-10.0-0.14,0,True,False,0,False,False,True,False,True,True,False,10,9,0,,0,,,2,,,,0,,,,,images/1 (1083).jpg,Dn,Dn,,0,8,0,,100896,,,initialTest_response,15,8,0,387,20107,0.34,749,image-keyboard-response,1,1,1,"current target, in next trial, from last trial",,,,2562
100896,84FHEd5UjixIQi0Fcueq,,0,,,,,2,r,False,,,,f,F,3,,1728,100896,1 (658).jpg,0.0-25.0-1.0-0.38,0,True,,0,False,,False,False,,False,False,,0,0,10,5,,,1,,,,0,,,,,images/1 (658).jpg,,FF,,,0,0,,100896,,,finalTest,,0,0,483,26255,0.44,1248,image-keyboard-response,,,,final Foil,,,,2562
100896,85zJjqp0YV6SKgWFN8JW,,0,,,,,2,r,False,,,,j,T_nontarget,3,,1728,100896,1 (2122).jpg,0.0-18.0-1.0-0.28,0,True,,0,True,,True,False,,False,False,,9,0,3,0,,,,,,,0,,,,,images/1 (2122).jpg,,A,,,28,0,,100896,,,finalTest,,0,0,137,22122,0.37,902,image-keyboard-response,,,,"studied only, not in trial",,,,2562
100896,86HRc4FDNuXLJ16uaIXf,,0,,,,,2,r,False,,,,j,T_foil,3,,1728,100896,1 (721).jpg,0.0-16.0-1.0-0.31,0,True,,0,True,,False,False,,True,False,,1,False,1,1,,,,,,,0,,,,,images/1 (721).jpg,,Fn,,,0,0,,100896,,,finalTest,,10,0,32,20860,0.35,797,image-keyboard-response,,,,"tested only, not in next trial",,,,2562
100896,86hOH9L7ZibDXjE0Az2e,,0,,,,,2,r,False,,,,f,F,3,,1728,100896,1 (1911).jpg,0.0-21.0-1.0-0.6,0,True,,0,False,,False,False,,False,False,,0,0,6,6,,,1,,,,0,,,,,images/1 (1911).jpg,,FF,,,0,0,,100896,,,finalTest,,0,0,259,23583,0.40,1024,image-keyboard-response,,,,final Foil,,,,2562
100896,8CojajbvRzlKDHVXLtoE,,0,,False,,,2,r,False,False,,,j,T_target,3,,1728,100896,1 (1819).jpg,0.0-10.0-10.0-0.27,0,False,True,0,False,True,True,False,True,True,False,6,6,False,,0,,,1,,,,0,,,,,images/1 (1819).jpg,B,B,,27,27,0,,100896,,,initialTest_response,28,28,0,0,15556,0.26,458,image-keyboard-response,1,1,0,"current target, not in next trial",,,,2562
100896,8DER4uPhKRvFpl1lWuhV,,0,,,,,2,r,False,,,,j,T_nontarget,3,,1728,100896,1 (1132).jpg,0.0-16.0-1.0-0.10,0,True,,0,True,,True,False,,False,False,,9,0,1,0,,,,,,,0,,,,,images/1 (1132).jpg,,A,,,6,0,,100896,,,finalTest,,0,0,11,20607,0.35,776,image-keyboard-response,,,,"studied only, not in trial",,,,2562
100896,8KudYJyQ9eRO6jN5R3Ps,,,,False,,,2,r,,,,,,T_target,3,,1728,100896,1 (529).jpg,0.0-5.0-2.0-0.10,0,True,True,0,,True,True,False,True,True,False,1,1,0,9,0,,,1,,,,,,,,,images/1 (529).jpg,B,B,,11,11,0,,100896,,,initial_study,22,22,0,433,8473,0.15,17,image-keyboard-response,1,1,0,"current target, not in next trial",,,,2562
100896,8RFnnBxEkISxg06d19Y7,,0,,,,,2,r,False,,,,f,F,3,,1728,100896,1 (1130).jpg,0.0-18.0-1.0-0.27,0,True,,0,False,,False,False,,False,False,,0,0,3,10,,,1,,,,0,,,,,images/1 (1130).jpg,,FF,,,0,0,,100896,,,finalTest,,0,0,136,22111,0.37,901,image-keyboard-response,,,,final Foil,,,,2562
100896,8bmR5MwasNrHzpFuYMpP,,0,,False,,,2,r,False,False,,,f,T_foil,3,,1728,100896,1 (1914).jpg,0.0-9.0-10.0-0.28,0,True,True,0,False,False,False,False,True,True,False,5,5,False,1,0,,,1,,,,0,,,,,images/1 (1914).jpg,Fn+1,Fn,,0,0,0,,100896,,,initialTest_response,29,29,0,59,14366,0.24,383,image-keyboard-response,0,1,0,"tested only, not in next trial",,,,2562
100896,8ife6Jaz3v3jGF8oqlJ8,,,,True,,,2,r,,,,,,T_target,3,,1728,100896,1 (609).jpg,0.0-11.0-2.0-0.4,0,False,True,0,,True,True,False,True,True,True,7,7,8,,0,,,1,,,,,,,,,images/1 (609).jpg,Dn+1,Dn,,5,5,0,,100896,,,initial_study,17,17,28,0,15698,0.27,467,image-keyboard-response,1,1,1,"current target, in next trial",,,,2562
100896,8k50JEQZIHwADbUnBp2u,,0,,True,,,2,r,False,False,,,j,T_target,3,,1728,100896,1 (2301).jpg,0.0-9.0-10.0-0.23,0,False,True,0,False,True,True,False,True,True,True,5,5,6,,0,,,1,,,,0,,,,,images/1 (2301).jpg,Dn+1,Dn,,25,25,0,,100896,,,initialTest_response,24,24,18,0,14250,0.24,378,image-keyboard-response,1,1,1,"current target, in next trial",,,,2562
100896,8p3jT2Y96EiJktCEjxEo,,0,,,,,2,r,False,,False,,j,T_nontarget,3,,1728,100896,1 (629).jpg,0.0-17.0-1.0-0.13,0,True,,0,True,,True,False,,False,True,,6,7,2,0,,,,,,,0,,,,,images/1 (629).jpg,,Cn,,,22,0,,100896,,,finalTest,,0,3,74,21359,0.36,839,image-keyboard-response,,,,"studied only, in next trial",,,,2562
100896,8reLSXFqTfpyeovXyi1o,,0,,,,,2,r,False,,,,f,F,3,,1728,100896,1 (568).jpg,0.0-18.0-1.0-0.35,0,True,,0,False,,False,False,,False,False,,0,0,3,7,,,1,,,,0,,,,,images/1 (568).jpg,,FF,,,0,0,,100896,,,finalTest,,0,0,144,22206,0.38,909,image-keyboard-response,,,,final Foil,,,,2562
100896,8sTvsCbmzF1DLAIk02ED,,,,False,,,2,r,,,,,,T_target,3,,1728,100896,1 (1020).jpg,0.0-10.0-2.0-0.1,0,False,True,0,,True,True,False,True,True,False,6,6,0,,0,,,1,,,,,,,,,images/1 (1020).jpg,B,B,,2,2,0,,100896,,,initial_study,10,10,0,0,14448,0.25,388,image-keyboard-response,1,1,0,"current target, not in next trial",,,,2562
100896,8un6gYLUqU9rfzOWdxmW,,,,False,,,2,r,,,,,,T_nontarget,3,,1728,100896,1 (2178).jpg,0.0-5.0-2.0-0.29,0,True,True,0,,True,True,False,False,False,False,1,1,0,6,0,,,1,,,,,,,,,images/1 (2178).jpg,A,A,,30,30,0,,100896,,,initial_study,0,0,0,293,8690,0.15,36,image-keyboard-response,1,0,0,"studied only, not in trial",,,,2562
100896,90c4sm3xfdKB3gcdOwmm,,0,,False,,,2,r,False,False,,,f,T_foil,3,,1728,100896,1 (290).jpg,0.0-6.0-10.0-0.28,0,True,True,0,False,False,False,False,True,True,False,2,2,False,4,0,,,1,,,,0,,,,,images/1 (290).jpg,Fn+1,Fn,,0,0,0,,100896,,,initialTest_response,29,29,0,203,10721,0.18,155,image-keyboard-response,0,1,0,"tested only, not in next trial",,,,2562
100896,93D11TrfHtP6D1A7aPqW,,0,,,,,2,r,False,,,,j,T_target,3,,1728,100896,1 (2307).jpg,0.0-25.0-1.0-0.22,0,True,,0,True,,True,False,,True,False,,9,0,10,0,,,,,,,0,,,,,images/1 (2307).jpg,,B,,,12,0,,100896,,,finalTest,,7,0,467,26062,0.44,1232,image-keyboard-response,,,,"current target, not in next trial",,,,2562
100896,95vc8K5l2IuCqGpGWROq,,,,True,,,2,r,,,,,,T_nontarget,3,,1728,100896,1 (917).jpg,0.0-5.0-2.0-0.4,0,True,True,0,,True,True,False,False,False,True,1,1,2,6,0,,,1,,,,,,,,,images/1 (917).jpg,Cn+1,Cn,,5,5,0,,100896,,,initial_study,0,0,20,265,8400,0.15,11,image-keyboard-response,1,0,1,"studied only, in next trial",,,,2562
100896,96O3eM8Rp3Dh6BvtPH7B,,,,,,,2,r,,,,,,,3,,1728,100896,,0.0-11.0-5.0-0.4,0,,,0,,,,,,,,7,,,,,,,,,5,,,,,,,8,,,8,,,,,100896,,43,digitPresentation,,,,,16074,0.27,499,html-keyboard-response,,,,,,,,2562
100896,97F9WjtBNuNfD0yyhZ9O,,0,,False,,,2,r,False,False,,,j,T_target,3,,1728,100896,1 (775).jpg,0.0-9.0-10.0-0.21,0,False,True,0,False,True,True,False,True,True,False,5,5,False,,0,,,1,,,,0,,,,,images/1 (775).jpg,B,B,,8,8,0,,100896,,,initialTest_response,22,22,0,0,14205,0.24,376,image-keyboard-response,1,1,0,"current target, not in next trial",,,,2562
100896,98Puqw7zSkg4tnnvzIlw,,,,False,,,2,r,,,,,,T_target,3,,1728,100896,1 (1893).jpg,0.0-10.0-2.0-0.14,0,False,True,0,,True,True,False,True,True,False,6,6,0,,0,,,1,,,,,,,,,images/1 (1893).jpg,B,B,,15,15,0,,100896,,,initial_study,12,12,0,0,14602,0.25,401,image-keyboard-response,1,1,0,"current target, not in next trial",,,,2562
100896,98QWCbYoH19oRCHOiYvd,,0,,,,,2,r,False,,,,j,T_nontarget,3,,1728,100896,1 (1623).jpg,0.0-23.0-1.0-0.29,0,True,,0,True,,True,False,,False,False,,7,0,8,0,,,,,,,0,,,,,images/1 (1623).jpg,,A,,,10,0,,100896,,,finalTest,,0,0,378,24996,0.42,1143,image-keyboard-response,,,,"studied only, not in trial",,,,2562
100896,9F3gCFe9OsLf2o6Kw9R2,,,,,,,2,r,,,,,,,3,,1728,100896,,0.0-5.0-5.0-0.5,0,,,0,,,,,,,,1,,,,,,,,,6,,,,,,,8,,,8,,,,,100896,,49,digitPresentation,,,,,8779,0.15,44,html-keyboard-response,,,,,,,,2562
100896,9HJDSkNH8tPnBiyuXBJI,,,,False,,,2,r,,,,,,T_nontarget,3,,1728,100896,1 (2350).jpg,0.0-14.0-2.0-0.12,0,False,True,0,,True,True,False,False,False,False,10,10,0,,0,,,1,,,,,,,,,images/1 (2350).jpg,A,A,,13,13,0,,100896,,,initial_study,0,0,0,0,19429,0.33,703,image-keyboard-response,1,0,0,"studied only, not in trial",,,,2562
100896,9LB8YP6n7Bsfsw5AJ817,,0,,True,,,2,r,False,False,,,f,T_foil,3,,1728,100896,1 (1776).jpg,0.0-8.0-10.0-0.24,0,False,True,0,False,False,False,False,True,True,True,4,4,5,,0,,,1,,,,0,,,,,images/1 (1776).jpg,Fnn+1,Fnn,,0,0,0,,100896,,,initialTest_response,25,25,23,0,13043,0.22,303,image-keyboard-response,0,1,1,"tested only, in next trial",,,,2562
100896,9TvCZoB4EZzM7OgEOuJF,,,,,,,2,r,,,,,,,3,,1728,100896,,0.0-6.0-4.0-0.0,0,,,0,,,,,,,,,,,,,,,,,,,,,,,,"<div style=""font-size:60px;"">+</div>",,,,,,,,100896,,,fixation,,,,,9927,0.17,114,html-keyboard-response,,,,,,,,2562
100896,9UvDo5hBvytpx24lltSv,,0,,,,,2,r,False,,,,j,T_target,3,,1728,100896,1 (768).jpg,0.0-21.0-1.0-0.3,0,True,,0,True,,True,False,,True,False,,8,0,6,0,,,,,,,0,,,,,images/1 (768).jpg,,B,,,20,0,,100896,,,finalTest,,8,0,256,23547,0.40,1021,image-keyboard-response,,,,"current target, not in next trial",,,,2562
100896,9bZF92xDhesS002wM9zS,,0,,False,,,2,r,False,False,,,f,T_foil,3,,1728,100896,1 (2164).jpg,0.0-10.0-10.0-0.22,0,False,True,0,False,False,False,False,True,True,False,6,6,False,,0,,,1,,,,0,,,,,images/1 (2164).jpg,Fn+1,Fn,,0,0,0,,100896,,,initialTest_response,23,23,0,0,15444,0.26,453,image-keyboard-response,0,1,0,"tested only, not in next trial",,,,2562
100896,9bcWUeJce7mqK3oJNwO9,,0,,True,,,2,r,False,,False,,f,T_foil,3,,1728,100896,1 (565).jpg,0.0-13.0-10.0-0.21,0,False,False,0,False,False,True,False,True,False,True,9,8,9,,0,,,2,,,,0,,,,,images/1 (565).jpg,Cn,Cn,,0,18,0,,100896,,,initialTest_response,22,0,22,0,19073,0.32,680,image-keyboard-response,1,0,1,"studied only, in next trial, from last trial",,,,2562
100896,9bhNwzWmQ74spFpc7R7l,,,,False,,,2,r,,,,,,T_target,3,,1728,100896,1 (168).jpg,0.0-8.0-2.0-0.4,0,False,True,0,,True,True,False,True,True,False,4,4,0,,0,,,1,,,,,,,,,images/1 (168).jpg,B,B,,5,5,0,,100896,,,initial_study,23,23,0,0,12042,0.21,239,image-keyboard-response,1,1,0,"current target, not in next trial",,,,2562
100896,9fE1XLiYBULxh9WgmPvL,,0,,,,,2,r,False,,,,f,F,3,,1728,100896,1 (134).jpg,0.0-17.0-1.0-0.2,0,True,,0,False,,False,False,,False,False,,0,0,2,7,,,1,,,,0,,,,,images/1 (134).jpg,,FF,,,0,0,,100896,,,finalTest,,0,0,63,21224,0.36,828,image-keyboard-response,,,,final Foil,,,,2562
100896,9gx3NRtjnKMic3UjnATO,,0,,,,,2,r,False,,,,f,F,3,,1728,100896,1 (1971).jpg,0.0-16.0-1.0-0.57,0,True,,0,False,,False,False,,False,False,,0,0,1,0,,,1,,,,0,,,,,images/1 (1971).jpg,,FF,,,0,0,,100896,,,finalTest,,0,0,58,21166,0.36,823,image-keyboard-response,,,,final Foil,,,,2562
100896,9iUFPo0pG3vzmyjTXiE9,,,,False,,,2,r,,,,,,T_target,3,,1728,100896,1 (1989).jpg,0.0-5.0-2.0-0.24,0,False,True,0,,True,True,False,True,True,False,1,1,0,,0,,,1,,,,,,,,,images/1 (1989).jpg,B,B,,25,25,0,,100896,,,initial_study,21,21,0,0,8634,0.15,31,image-keyboard-response,1,1,0,"current target, not in next trial",,,,2562
100896,9nAV5kcJKVRpZNY44AE0,,,,False,,,2,r,,,,,,T_nontarget,3,,1728,100896,1 (1087).jpg,0.0-5.0-2.0-0.12,0,True,True,0,,True,True,False,False,False,False,1,1,0,10,0,,,1,,,,,,,,,images/1 (1087).jpg,A,A,,13,13,0,,100896,,,initial_study,0,0,0,453,8495,0.15,19,image-keyboard-response,1,0,0,"studied only, not in trial",,,,2562
100896,9vzdEMzOQMRwsCbjA9c5,,0,,,,,2,r,False,,,,f,F,3,,1728,100896,1 (817).jpg,0.0-25.0-1.0-0.46,0,True,,0,False,,False,False,,False,False,,0,0,10,7,,,1,,,,0,,,,,images/1 (817).jpg,,FF,,,0,0,,100896,,,finalTest,,0,0,491,26361,0.44,1256,image-keyboard-response,,,,final Foil,,,,2562
100896,9w6Clk9TOwPQenwZwnGd,,0,,,,,2,r,False,,,,f,F,3,,1728,100896,1 (141).jpg,0.0-18.0-1.0-0.13,0,True,,0,False,,False,False,,False,False,,0,0,3,0,,,1,,,,0,,,,,images/1 (141).jpg,,FF,,,0,0,,100896,,,finalTest,,0,0,122,21946,0.37,887,image-keyboard-response,,,,final Foil,,,,2562
100896,9yoQXtzqAipQByhoK54c,,,,,,,2,r,,,,,,,3,,1728,100896,,0.0-8.0-5.0-0.2,0,,,0,,,,,,,,4,,,,,,,,,3,,,,,,,6,,,6,,,,,100896,,57,digitPresentation,,,,,12387,0.21,269,html-keyboard-response,,,,,,,,2562
100896,A204QkfsENfkjNug5F3P,,0,,False,,,2,r,False,False,,,j,T_target,3,,1728,100896,1 (1131).jpg,0.0-5.0-10.0-0.5,0,True,True,0,False,True,True,False,True,True,False,1,1,False,,0,,,1,,,,0,,,,,images/1 (1131).jpg,B,B,,23,23,0,,100896,,,initialTest_response,6,6,0,118,8978,0.16,56,image-keyboard-response,1,1,0,"current target, not in next trial",,,,2562
100896,A3SCqSBJ4ILdGKjyznun,,0,,,,,2,r,False,,,,f,F,3,,1728,100896,1 (1445).jpg,0.0-25.0-1.0-0.43,0,True,,0,False,,False,False,,False,False,,0,0,10,6,,,1,,,,0,,,,,images/1 (1445).jpg,,FF,,,0,0,,100896,,,finalTest,,0,0,488,26323,0.44,1253,image-keyboard-response,,,,final Foil,,,,2562
100896,A8esSJL9JPEYus8ESKcx,,0,,True,,,2,r,False,,False,,f,T_foil,3,,1728,100896,1 (1454).jpg,0.0-12.0-10.0-0.14,0,False,False,0,False,False,True,False,True,False,True,8,7,8,,0,,,2,,,,0,,,,,images/1 (1454).jpg,Cn,Cn,,0,30,0,,100896,,,initialTest_response,15,0,15,0,17709,0.30,597,image-keyboard-response,1,0,1,"studied only, in next trial, from last trial",,,,2562
100896,A8fOcpRWnuDGqAGnDLLR,,0,,True,,,2,r,False,False,False,,f,T_foil,3,,1728,100896,1 (74).jpg,0.0-8.0-10.0-0.5,0,True,False,0,False,False,False,False,True,False,True,4,3,4,,0,,,2,,,,0,,,,,images/1 (74).jpg,Fnn,Fnn,,0,0,0,,100896,,,initialTest_response,6,0,6,306,12612,0.22,284,image-keyboard-response,0,1,1,"tested only, in next trial, from last trial",,,,2562
100896,A9fOaxc4x4dCuoF3CW7Z,,,,False,,,2,r,,,,,,T_nontarget,3,,1728,100896,1 (586).jpg,0.0-5.0-2.0-0.26,0,True,True,0,,True,True,False,False,False,False,1,1,0,10,0,,,1,,,,,,,,,images/1 (586).jpg,A,A,,27,27,0,,100896,,,initial_study,0,0,0,486,8655,0.15,33,image-keyboard-response,1,0,0,"studied only, not in trial",,,,2562
100896,A9uBYVQ7wG2v5Ym0KxJh,,0,,False,,,2,r,False,False,,,j,T_target,3,,1728,100896,1 (1579).jpg,0.0-10.0-10.0-0.24,0,True,True,0,False,True,True,False,True,True,False,6,6,False,,0,,,1,,,,0,,,,,images/1 (1579).jpg,B,B,,13,13,0,,100896,,,initialTest_response,25,25,0,222,15491,0.26,455,image-keyboard-response,1,1,0,"current target, not in next trial",,,,2562
100896,ABG6hFZUOAYHA3DiW9gv,,,,False,,,2,r,,,,,,T_nontarget,3,,1728,100896,1 (685).jpg,0.0-12.0-2.0-0.13,0,True,True,0,,True,True,False,False,False,False,8,8,0,9,0,,,1,,,,,,,,,images/1 (685).jpg,A,A,,14,14,0,,100896,,,initial_study,0,0,0,437,17019,0.29,552,image-keyboard-response,1,0,0,"studied only, not in trial",,,,2562
100896,AGYGRiGS4EDNUNcUANCa,,0,,,,,2,r,False,,,,f,F,3,,1728,100896,1 (1833).jpg,0.0-19.0-1.0-0.37,0,True,,0,False,,False,False,,False,False,,0,0,4,10,,,1,,,,0,,,,,images/1 (1833).jpg,,FF,,,0,0,,100896,,,finalTest,,0,0,194,22807,0.39,959,image-keyboard-response,,,,final Foil,,,,2562
100896,APSwl3G5pQ8rwFl70Lrd,,0,,,,,2,r,False,,,,f,F,3,,1728,100896,1 (1616).jpg,0.0-16.0-1.0-0.0,0,True,,0,False,,False,False,,False,False,,0,0,1,6,,,1,,,,0,,,,,images/1 (1616).jpg,,FF,,,0,0,,100896,,,finalTest,,0,0,1,20484,0.35,766,image-keyboard-response,,,,final Foil,,,,2562
100896,ARMZf8rpOIEfMG7uzjds,,0,,,,,2,r,False,,,,j,T_target,3,,1728,100896,1 (1807).jpg,0.0-16.0-1.0-0.43,0,True,,0,True,,True,False,,True,False,,10,0,1,0,,,,,,,0,,,,,images/1 (1807).jpg,,B,,,2,0,,100896,,,finalTest,,4,0,44,21001,0.36,809,image-keyboard-response,,,,"current target, not in next trial",,,,2562
100896,AY81YdGO7wPSPfaTwxf9,,0,,,,,2,r,False,,,,j,T_nontarget,3,,1728,100896,1 (1029).jpg,0.0-16.0-1.0-0.42,0,True,,0,True,,True,False,,False,False,,4,0,1,0,,,,,,,0,,,,,images/1 (1029).jpg,,A,,,7,0,,100896,,,finalTest,,0,0,43,20990,0.36,808,image-keyboard-response,,,,"studied only, not in trial",,,,2562
100896,AYAozniLLsv4wictEqCk,,0,,,,,2,r,False,,,,f,F,3,,1728,100896,1 (1944).jpg,0.0-19.0-1.0-0.10,0,True,,0,False,,False,False,,False,False,,0,0,4,1,,,1,,,,0,,,,,images/1 (1944).jpg,,FF,,,0,0,,100896,,,finalTest,,0,0,167,22479,0.38,932,image-keyboard-response,,,,final Foil,,,,2562
100896,AYYcD7aXr6DsU0Kkub48,,0,,True,,,2,r,False,False,,,j,T_target,3,,1728,100896,1 (1083).jpg,0.0-13.0-10.0-0.5,0,True,True,0,False,True,True,False,True,True,True,9,9,10,,0,,,1,,,,0,,,,,images/1 (1083).jpg,Dn+1,Dn,,8,8,0,,100896,,,initialTest_response,6,6,15,387,18712,0.32,664,image-keyboard-response,1,1,1,"current target, in next trial",,,,2562
100896,Aflg0A7TFtMIc8EuoQpn,,,,,,,2,r,,,,,,,3,,1728,100896,,0.0-13.0-5.0-0.2,0,,,0,,,,,,,,9,,,,,,,,,3,,,,,,,9,,,9,,,,,100896,,49,digitPresentation,,,,,18491,0.31,649,html-keyboard-response,,,,,,,,2562
100896,AhAJophnefiJgMzU1eDF,,0,,False,,,2,r,False,False,,,j,T_target,3,,1728,100896,1 (973).jpg,0.0-11.0-10.0-0.18,0,True,True,0,False,True,True,False,True,True,False,7,7,False,,0,,,1,,,,0,,,,,images/1 (973).jpg,B,B,,16,16,0,,100896,,,initialTest_response,19,19,0,147,16571,0.28,525,image-keyboard-response,1,1,0,"current target, not in next trial",,,,2562
100896,AiCdEGuT0LaMmIs7RKpV,,0,,False,,,2,r,False,False,,,f,T_foil,3,,1728,100896,1 (522).jpg,0.0-7.0-10.0-0.9,0,False,True,0,False,False,False,False,True,True,False,3,3,False,,0,,,1,,,,0,,,,,images/1 (522).jpg,Fn+1,Fn,,0,0,0,,100896,,,initialTest_response,10,10,0,0,11504,0.20,212,image-keyboard-response,0,1,0,"tested only, not in next trial",,,,2562
100896,AmykjMWMvyTpNuD89VvL,,,,False,,,2,r,,,,,,T_nontarget,3,,1728,100896,1 (902).jpg,0.0-10.0-2.0-0.6,0,True,True,0,,True,True,False,False,False,False,6,6,0,8,0,,,1,,,,,,,,,images/1 (902).jpg,A,A,,7,7,0,,100896,,,initial_study,0,0,0,388,14509,0.25,393,image-keyboard-response,1,0,0,"studied only, not in trial",,,,2562
100896,ApFyfPJ71QOtFahvh4Tv,,,,False,,,2,r,,,,,,T_nontarget,3,,1728,100896,1 (1028).jpg,0.0-5.0-2.0-0.17,0,False,True,0,,True,True,False,False,False,False,1,1,0,,0,,,1,,,,,,,,,images/1 (1028).jpg,A,A,,18,18,0,,100896,,,initial_study,0,0,0,0,8553,0.15,24,image-keyboard-response,1,0,0,"studied only, not in trial",,,,2562
100896,AuZP6j3mU9cd0LIzEw9E,,,,True,,,2,r,,,,,,T_nontarget,3,,1728,100896,1 (1090).jpg,0.0-8.0-2.0-0.21,0,False,True,0,,True,True,False,False,False,True,4,4,5,,0,,,1,,,,,,,,,images/1 (1090).jpg,Cn+1,Cn,,22,22,0,,100896,,,initial_study,0,0,11,0,12240,0.21,256,image-keyboard-response,1,0,1,"studied only, in next trial",,,,2562
100896,AwXESwRyLbitrqcmUFcT,,0,,False,,,2,r,False,False,,,j,T_target,3,,1728,100896,1 (1236).jpg,0.0-13.0-10.0-0.11,0,True,True,0,False,True,True,False,True,True,False,9,9,False,,0,,,1,,,,0,,,,,images/1 (1236).jpg,B,B,,2,2,0,,100896,,,initialTest_response,12,12,0,485,18851,0.32,670,image-keyboard-response,1,1,0,"current target, not in next trial",,,,2562
100896,Ax77cWVHiyVCpscm5cG4,,0,,True,,,2,r,False,False,False,,f,T_foil,3,,1728,100896,1 (2301).jpg,0.0-10.0-10.0-0.17,0,False,False,0,False,False,True,False,True,True,True,6,5,6,,0,,,2,,,,0,,,,,images/1 (2301).jpg,Dn,Dn,,0,25,0,,100896,,,initialTest_response,18,25,18,0,15335,0.26,448,image-keyboard-response,1,1,1,"current target, in next trial, from last trial",,,,2562
100896,B1H9exxtde3DNkTC2OtT,,,,,,,2,r,,,,,,,3,,1728,100896,,0.0-9.0-5.0-0.1,0,,,0,,,,,,,,5,,,,,,,,,2,,,,,,,4,,,4,,,,,100896,,50,digitPresentation,,,,,13604,0.23,344,html-keyboard-response,,,,,,,,2562
100896,B1HpUSztgOpQnUwYthgW,,,,,,,2,r,,,,,,,3,,1728,100896,,0.0-11.0-9.0-0.0,0,,,0,,,,,,,,,,,,,,,,,,,,,,,,"<div style=""font-size:60px;"">+</div>",,,,,,,,100896,,,fixation,,,,,16159,0.27,506,html-keyboard-response,,,,,,,,2562
100896,B61eD701zks8Np1yUxAq,,,,False,,,2,r,,,,,,T_target,3,,1728,100896,1 (1433).jpg,0.0-6.0-2.0-0.2,0,True,True,0,,True,True,False,True,True,False,2,2,0,8,0,,,1,,,,,,,,,images/1 (1433).jpg,B,B,,3,3,0,,100896,,,initial_study,22,22,0,356,9578,0.17,85,image-keyboard-response,1,1,0,"current target, not in next trial",,,,2562
100896,B8Y4cqkLncv5bthcFGJV,,0,,,,,2,r,False,,,,f,F,3,,1728,100896,1 (1523).jpg,0.0-17.0-1.0-0.43,0,True,,0,False,,False,False,,False,False,,0,0,2,3,,,1,,,,0,,,,,images/1 (1523).jpg,,FF,,,0,0,,100896,,,finalTest,,0,0,104,21732,0.37,869,image-keyboard-response,,,,final Foil,,,,2562
100896,BAwZmQJESvzfxHr9ysz8,,0,,,,,2,r,False,,,,f,F,3,,1728,100896,1 (864).jpg,0.0-25.0-1.0-0.33,0,True,,0,False,,False,False,,False,False,,0,0,10,8,,,1,,,,0,,,,,images/1 (864).jpg,,FF,,,0,0,,100896,,,finalTest,,0,0,478,26197,0.44,1243,image-keyboard-response,,,,final Foil,,,,2562
100896,BD6sYxh2VbY3c45vomwc,,0,,,,,2,r,False,,,,f,F,3,,1728,100896,1 (1729).jpg,0.0-16.0-1.0-0.26,0,True,,0,False,,False,False,,False,False,,0,0,1,6,,,1,,,,0,,,,,images/1 (1729).jpg,,FF,,,0,0,,100896,,,finalTest,,0,0,27,20801,0.35,792,image-keyboard-response,,,,final Foil,,,,2562
100896,BET30vAzrhb7mNX5mHBg,,0,,False,,,2,r,False,False,,,j,T_target,3,,1728,100896,1 (1403).jpg,0.0-7.0-10.0-0.7,0,False,True,0,False,True,True,False,True,True,False,3,3,False,,0,,,1,,,,0,,,,,images/1 (1403).jpg,B,B,,10,10,0,,100896,,,initialTest_response,8,8,0,0,11460,0.20,210,image-keyboard-response,1,1,0,"current target, not in next trial",,,,2562
100896,BG34GcpgS6l3M1JFsdPF,,0,,False,,,2,r,False,False,,,j,T_target,3,,1728,100896,1 (2354).jpg,0.0-14.0-10.0-0.26,0,True,True,0,False,True,True,False,True,True,False,10,10,0,,0,,,1,,,,0,,,,,images/1 (2354).jpg,B,B,,18,18,0,,100896,,,initialTest_response,27,27,0,275,20382,0.35,761,image-keyboard-response,1,1,0,"current target, not in next trial",,,,2562
100896,BHICtyI2S13moTJgeo6V,,0,,True,,,2,r,False,False,,,f,T_foil,3,,1728,100896,1 (1844).jpg,0.0-9.0-10.0-0.15,0,False,True,0,False,False,False,False,True,True,True,5,5,6,,0,,,1,,,,0,,,,,images/1 (1844).jpg,Fnn+1,Fnn,,0,0,0,,100896,,,initialTest_response,16,16,13,0,14071,0.24,370,image-keyboard-response,0,1,1,"tested only, in next trial",,,,2562
100896,BJU3OkUbIYAqUhVYbEdb,,0,,,,,2,r,False,,,,j,T_foil,3,,1728,100896,1 (966).jpg,0.0-17.0-1.0-0.21,0,True,,0,True,,False,False,,True,False,,2,False,2,2,,,,,,,0,,,,,images/1 (966).jpg,,Fn,,,0,0,,100896,,,finalTest,,14,0,82,21464,0.36,847,image-keyboard-response,,,,"tested only, not in next trial",,,,2562
100896,BK67jlYyqiU65ezqyl1e,,,,,,,2,r,,,,,,,3,,1728,100896,,0.0-13.0-4.0-0.0,0,,,0,,,,,,,,,,,,,,,,,,,,,,,,"<div style=""font-size:60px;"">+</div>",,,,,,,,100896,,,fixation,,,,,18456,0.31,646,html-keyboard-response,,,,,,,,2562
100896,BfcoMLMhaqYKM1ZcvrpU,,0,,,,,2,r,False,,,,j,T_foil,3,,1728,100896,1 (2200).jpg,0.0-18.0-1.0-0.6,0,True,,0,True,,False,False,,True,False,,1,False,3,1,,,,,,,0,,,,,images/1 (2200).jpg,,Fn,,,0,0,,100896,,,finalTest,,17,0,115,21866,0.37,880,image-keyboard-response,,,,"tested only, not in next trial",,,,2562
100896,BouvB9hsPqBUyIOdmXCZ,,0,,,,,2,r,False,,,,j,T_nontarget,3,,1728,100896,1 (868).jpg,0.0-24.0-1.0-0.28,0,True,,0,True,,True,False,,False,False,,2,0,9,0,,,,,,,0,,,,,images/1 (868).jpg,,A,,,24,0,,100896,,,finalTest,,0,0,425,25554,0.43,1190,image-keyboard-response,,,,"studied only, not in trial",,,,2562
100896,Bp33VjJsEMEz2z59qyex,,,,False,,,2,r,,,,,,T_nontarget,3,,1728,100896,1 (1156).jpg,0.0-6.0-2.0-0.17,0,False,True,0,,True,True,False,False,False,False,2,2,0,,0,,,1,,,,,,,,,images/1 (1156).jpg,A,A,,18,18,0,,100896,,,initial_study,0,0,0,0,9758,0.17,100,image-keyboard-response,1,0,0,"studied only, not in trial",,,,2562
100896,BtpXxIlwDne3opqPT5ZE,,0,,,,,2,r,False,,,,j,T_target,3,,1728,100896,1 (1757).jpg,0.0-24.0-1.0-0.26,0,True,,0,True,,True,False,,True,False,,3,0,9,0,,,,,,,0,,,,,images/1 (1757).jpg,,B,,,23,0,,100896,,,finalTest,,21,0,423,25529,0.43,1188,image-keyboard-response,,,,"current target, not in next trial",,,,2562
100896,BvFm1KtDQN3lYjuVI3Py,,,,False,,,2,r,,,,,,T_nontarget,3,,1728,100896,1 (2019).jpg,0.0-10.0-2.0-0.16,0,True,True,0,,True,True,False,False,False,False,6,6,0,5,0,,,1,,,,,,,,,images/1 (2019).jpg,A,A,,17,17,0,,100896,,,initial_study,0,0,0,250,14626,0.25,403,image-keyboard-response,1,0,0,"studied only, not in trial",,,,2562
100896,BvgULIDB99FDqngLIrle,,0,,,,,2,r,False,,,,f,F,3,,1728,100896,1 (448).jpg,0.0-20.0-1.0-0.4,0,True,,0,False,,False,False,,False,False,,0,0,5,0,,,1,,,,0,,,,,images/1 (448).jpg,,FF,,,0,0,,100896,,,finalTest,,0,0,209,22990,0.39,974,image-keyboard-response,,,,final Foil,,,,2562
100896,BvocJbdpDaaqOPSQAJRe,,0,,,,,2,r,False,,,,j,T_target,3,,1728,100896,1 (2354).jpg,0.0-21.0-1.0-0.22,0,True,,0,True,,True,False,,True,False,,10,0,6,0,,,,,,,0,,,,,images/1 (2354).jpg,,B,,,18,0,,100896,,,finalTest,,27,0,275,23768,0.40,1040,image-keyboard-response,,,,"current target, not in next trial",,,,2562
100896,BysmxaZ0bbGDHA2miIz5,,0,,,,,2,r,False,False,False,,j,T_target,3,,1728,100896,1 (667).jpg,0.0-24.0-1.0-0.35,0,True,,0,True,,True,False,,True,True,,8,9,9,0,,,,,,,0,,,,,images/1 (667).jpg,,Dn,,,19,0,,100896,,,finalTest,,3,20,432,25644,0.43,1197,image-keyboard-response,,,,"current target, in next trial",,,,2562
100896,BzVNKHrHVSVFKUzjxiWA,,,,,,,2,r,,,,,,,3,,1728,100896,,0.0-6.0-9.0-0.0,0,,,0,,,,,,,,,,,,,,,,,,,,,,,,"<div style=""font-size:60px;"">+</div>",,,,,,,,100896,,,fixation,,,,,10065,0.17,126,html-keyboard-response,,,,,,,,2562
100896,C20aqFATo0GHH27m0ATz,,,,False,,,2,r,,,,,,T_nontarget,3,,1728,100896,1 (54).jpg,0.0-6.0-2.0-0.15,0,True,True,0,,True,True,False,False,False,False,2,2,0,9,0,,,1,,,,,,,,,images/1 (54).jpg,A,A,,16,16,0,,100896,,,initial_study,0,0,0,421,9736,0.17,98,image-keyboard-response,1,0,0,"studied only, not in trial",,,,2562
100896,C7F3YS45VBa4Ry1mlkgj,,0,,False,,,2,r,False,False,,,j,T_target,3,,1728,100896,1 (1727).jpg,0.0-8.0-10.0-0.7,0,True,True,0,False,True,True,False,True,True,False,4,4,False,,0,,,1,,,,0,,,,,images/1 (1727).jpg,B,B,,1,1,0,,100896,,,initialTest_response,8,8,0,300,12657,0.22,286,image-keyboard-response,1,1,0,"current target, not in next trial",,,,2562
100896,CA2EmVDMjZYL8bNcyY65,,,,,,,2,r,,,,,,,3,,1728,100896,,0.0-13.0-8.0-0.0,0,,,0,,,,,,,,,,,,,,,,,,,,,,,,Now judge if you have seen this pictures from the list you JUST studied before the digits,,,,,,,,100896,,,prompt,,,,,18578,0.32,657,html-keyboard-response,,,,,,,,2562
100896,CBTgJW4uPi2mO1ip4hbb,,,,,,,2,r,,,,,,,3,,1728,100896,,0.0-8.0-7.0-0.0,0,,,0,,,,,,,,,,,,,,,,,,,,,,,,<p background:white>INCORRECT!</p>,,,,,,,,100896,,,promptfeedback,,,,,12466,0.21,276,html-keyboard-response,,,,,,,,2562
100896,CDTUQD1lXuX9hoLdqY8T,,0,,True,,,2,r,False,False,,,j,T_target,3,,1728,100896,1 (1866).jpg,0.0-14.0-10.0-0.29,0,False,True,0,False,True,True,False,True,True,False,10,10,0,,0,,,1,,,,0,,,,,images/1 (1866).jpg,Dn+1,Dn,,12,12,0,,100896,,,initialTest_response,30,30,0,0,20448,0.35,764,image-keyboard-response,1,1,1,"current target, in next trial",,,,2562
100896,CFYaCXM3VYapuSFru1kJ,,,,False,,,2,r,,,,,,T_nontarget,3,,1728,100896,1 (594).jpg,0.0-13.0-2.0-0.13,0,True,True,0,,True,True,False,False,False,False,9,9,0,6,0,,,1,,,,,,,,,images/1 (594).jpg,A,A,,14,14,0,,100896,,,initial_study,0,0,0,253,18245,0.31,628,image-keyboard-response,1,0,0,"studied only, not in trial",,,,2562
100896,CImSfMiHhmlH81wg7Cd2,,0,,True,,,2,r,False,,False,,f,T_foil,3,,1728,100896,1 (899).jpg,0.0-11.0-10.0-0.7,0,True,False,0,False,False,True,False,True,False,True,7,6,7,,0,,,2,,,,0,,,,,images/1 (899).jpg,Cn,Cn,,0,1,0,,100896,,,initialTest_response,8,0,8,158,16328,0.28,514,image-keyboard-response,1,0,1,"studied only, in next trial, from last trial",,,,2562
100896,CKvtzRa1KH8lCg8fFXge,,,,,,,2,r,,,,,,,3,,1728,100896,,0.0-12.0-1.0-0.0,0,,,0,,,,,,,,,,,,,,,,,,,,,,,,"<div style=""font-size:60px;"">+</div>",,,,,,,,100896,,,fixation,,,,,16851,0.29,538,html-keyboard-response,,,,,,,,2562
100896,CS9TzUwGSCbroqxyVgH0,,0,,True,,,2,r,False,,False,,f,T_foil,3,,1728,100896,1 (575).jpg,0.0-14.0-10.0-0.20,0,True,False,0,False,False,True,False,True,False,False,10,9,0,,0,,,2,,,,0,,,,,images/1 (575).jpg,Cn,Cn,,0,20,0,,100896,,,initialTest_response,21,0,0,29,20238,0.34,755,image-keyboard-response,1,0,1,"studied only, in next trial, from last trial",,,,2562
100896,CSGYCMJyMJTyjXYA6mVV,,0,,,,,2,r,False,,,,j,T_nontarget,3,,1728,100896,1 (2178).jpg,0.0-21.0-1.0-0.40,0,True,,0,True,,True,False,,False,False,,1,0,6,0,,,,,,,0,,,,,images/1 (2178).jpg,,A,,,30,0,,100896,,,finalTest,,0,0,293,23977,0.41,1058,image-keyboard-response,,,,"studied only, not in trial",,,,2562
100896,CZi2spegJCHVsMH5lLzg,,,,False,,,2,r,,,,,,T_nontarget,3,,1728,100896,1 (277).jpg,0.0-5.0-2.0-0.3,0,True,True,0,,True,True,False,False,False,False,1,1,0,1,0,,,1,,,,,,,,,images/1 (277).jpg,A,A,,4,4,0,,100896,,,initial_study,0,0,0,15,8389,0.15,10,image-keyboard-response,1,0,0,"studied only, not in trial",,,,2562
100896,Cc8fnsHKaF9Djlr2icmg,,,,,,,2,r,,,,,,,3,,1306,100896,,0.0-3.0,0,,,0,,,,,,,,,,,,,,,,,,[0],,"{'consent': ""I have read and understand this information and agree to join this study. <p style='text-align: left'> Clicking to confirm, then press 'enter' to continue.</p>""}",,2544,,,,,,,,,,100896,,,,,,,,6491,0.11,3,survey-multi-choice,,,,,,,,885
100896,CfWqrKZ7bdWLy3UOSsPu,,,,,,,2,r,,,,,,,3,,1728,100896,,0.0-12.0-0.0-0.0,0,,,0,,,,,,,,,,,,,,,,,,,,,,,,"
    <p style='text-align: justify;color: black;background: white;font: caption-;''>
        Press the 'enter' key to see the next list of pictures. </p>
    ",,,,,,,,100896,,,,,,,,16841,0.29,537,html-keyboard-response,,,,,,,,2562
100896,CfkXl6Oeqvkc75G62Qwz,,,,,,,2,r,,,,,,,3,,1728,100896,,0.0-7.0-9.0-0.0,0,,,0,,,,,,,,,,,,,,,,,,,,,,,,"<div style=""font-size:60px;"">+</div>",,,,,,,,100896,,,fixation,,,,,11296,0.19,202,html-keyboard-response,,,,,,,,2562
100896,Ci8K4qJBS9pLC9xErguZ,,0,,False,,,2,r,False,False,,,j,T_target,3,,1728,100896,1 (89).jpg,0.0-12.0-10.0-0.21,0,False,True,0,False,True,True,False,True,True,False,8,8,False,,0,,,1,,,,0,,,,,images/1 (89).jpg,B,B,,12,12,0,,100896,,,initialTest_response,22,22,0,0,17868,0.30,604,image-keyboard-response,1,1,0,"current target, not in next trial",,,,2562
100896,ClLB2oBdraSvnw2Cewtu,,0,,,,,2,r,False,,,,j,T_target,3,,1728,100896,1 (1363).jpg,0.0-16.0-1.0-0.32,0,True,,0,True,,True,False,,True,False,,9,0,1,0,,,,,,,0,,,,,images/1 (1363).jpg,,B,,,22,0,,100896,,,finalTest,,4,0,33,20871,0.35,798,image-keyboard-response,,,,"current target, not in next trial",,,,2562
100896,CrMwhvdn3ioWP8xyh6u2,,0,,,,,2,r,False,,,,j,T_target,3,,1728,100896,1 (689).jpg,0.0-19.0-1.0-0.34,0,True,,0,True,,True,False,,True,False,,10,0,4,0,,,,,,,0,,,,,images/1 (689).jpg,,B,,,30,0,,100896,,,finalTest,,8,0,191,22771,0.38,956,image-keyboard-response,,,,"current target, not in next trial",,,,2562
100896,Ctv0nIbJ9RDoRAnDHXhM,,0,,True,,,2,r,False,,False,,f,T_foil,3,,1728,100896,1 (234).jpg,0.0-6.0-10.0-0.0,0,False,False,0,False,False,True,False,True,False,True,2,1,2,,0,,,2,,,,0,,,,,images/1 (234).jpg,Cn,Cn,,0,24,0,,100896,,,initialTest_response,1,0,1,0,10077,0.17,127,image-keyboard-response,1,0,1,"studied only, in next trial, from last trial",,,,2562
100896,DC4Hw9CZByjA8nSLvJOP,,0,,True,,,2,r,False,False,False,,f,T_foil,3,,1728,100896,1 (2355).jpg,0.0-7.0-10.0-0.17,0,True,False,0,False,False,True,False,True,True,True,3,2,3,,0,,,2,,,,0,,,,,images/1 (2355).jpg,Dn,Dn,,0,26,0,,100896,,,initialTest_response,18,26,18,202,11684,0.20,220,image-keyboard-response,1,1,1,"current target, in next trial, from last trial",,,,2562
100896,DDaL8sA7Jg7Qefd2ZWhK,,0,,True,,,2,r,False,False,,,j,T_target,3,,1728,100896,1 (1815).jpg,0.0-5.0-10.0-0.3,0,True,True,0,False,True,True,False,True,True,True,1,1,2,,0,,,1,,,,0,,,,,images/1 (1815).jpg,Dn+1,Dn,,28,28,0,,100896,,,initialTest_response,4,4,30,223,8927,0.15,54,image-keyboard-response,1,1,1,"current target, in next trial",,,,2562
100896,DFTq81NkaKjhnLRGnsz4,,,,False,,,2,r,,,,,,T_target,3,,1728,100896,1 (19).jpg,0.0-12.0-2.0-0.3,0,False,True,0,,True,True,False,True,True,False,8,8,0,,0,,,1,,,,,,,,,images/1 (19).jpg,B,B,,4,4,0,,100896,,,initial_study,12,12,0,0,16899,0.29,542,image-keyboard-response,1,1,0,"current target, not in next trial",,,,2562
100896,DGZGwV2a97TrzaU3RmL0,,0,,False,,,2,r,False,False,,,f,T_foil,3,,1728,100896,1 (1511).jpg,0.0-5.0-10.0-0.28,0,False,True,0,False,False,False,False,True,True,False,1,1,False,,0,,,1,,,,0,,,,,images/1 (1511).jpg,Fn+1,Fn,,0,0,0,,100896,,,initialTest_response,29,29,0,0,9486,0.16,79,image-keyboard-response,0,1,0,"tested only, not in next trial",,,,2562
100896,DLLbVl62U5ZIRapyG5uM,,0,,,,,2,r,False,,,,j,T_target,3,,1728,100896,1 (1479).jpg,0.0-19.0-1.0-0.9,0,True,,0,True,,True,False,,True,False,,3,0,4,0,,,,,,,0,,,,,images/1 (1479).jpg,,B,,,16,0,,100896,,,finalTest,,13,0,166,22467,0.38,931,image-keyboard-response,,,,"current target, not in next trial",,,,2562
100896,DVA9npFjMacbn1gAFxgf,,0,,True,,,2,r,False,False,False,,f,T_foil,3,,1728,100896,1 (1346).jpg,0.0-8.0-10.0-0.14,0,False,False,0,False,False,True,False,True,True,True,4,3,4,,0,,,2,,,,0,,,,,images/1 (1346).jpg,Dn,Dn,,0,21,0,,100896,,,initialTest_response,15,21,15,0,12817,0.22,293,image-keyboard-response,1,1,1,"current target, in next trial, from last trial",,,,2562
100896,DWlNjFstFHS300e27usX,,0,,False,,,2,r,False,False,,,j,T_target,3,,1728,100896,1 (820).jpg,0.0-10.0-10.0-0.16,0,True,True,0,False,True,True,False,True,True,False,6,6,False,,0,,,1,,,,0,,,,,images/1 (820).jpg,B,B,,24,24,0,,100896,,,initialTest_response,17,17,0,415,15309,0.26,447,image-keyboard-response,1,1,0,"current target, not in next trial",,,,2562
100896,DaGMt2yp1jprnJfDLTM3,,,,False,,,2,r,,,,,,T_target,3,,1728,100896,1 (519).jpg,0.0-14.0-2.0-0.13,0,False,True,0,,True,True,False,True,True,False,10,10,0,,0,,,1,,,,,,,,,images/1 (519).jpg,B,B,,14,14,0,,100896,,,initial_study,22,22,0,0,19440,0.33,704,image-keyboard-response,1,1,0,"current target, not in next trial",,,,2562
100896,DdE7eoF7HvyeNwvSuzZ3,,0,,True,,,2,r,False,False,False,,f,T_foil,3,,1728,100896,1 (2031).jpg,0.0-10.0-10.0-0.21,0,True,False,0,False,False,False,False,True,False,True,6,5,6,,0,,,2,,,,0,,,,,images/1 (2031).jpg,Fnn,Fnn,,0,0,0,,100896,,,initialTest_response,22,0,22,270,15422,0.26,452,image-keyboard-response,0,1,1,"tested only, in next trial, from last trial",,,,2562
100896,DdUcRgemgYGVt0X9vCss,,0,,,,,2,r,False,,,,f,F,3,,1728,100896,1 (238).jpg,0.0-21.0-1.0-0.18,0,True,,0,False,,False,False,,False,False,,0,0,6,1,,,1,,,,0,,,,,images/1 (238).jpg,,FF,,,0,0,,100896,,,finalTest,,0,0,271,23724,0.40,1036,image-keyboard-response,,,,final Foil,,,,2562
100896,DdvmkbPfZ5f0HuqiafW9,,0,,,,,2,r,False,,,,f,F,3,,1728,100896,1 (1239).jpg,0.0-17.0-1.0-0.40,0,True,,0,False,,False,False,,False,False,,0,0,2,0,,,1,,,,0,,,,,images/1 (1239).jpg,,FF,,,0,0,,100896,,,finalTest,,0,0,101,21686,0.37,866,image-keyboard-response,,,,final Foil,,,,2562
100896,DfbA2Mv5udtvgbIqtYIt,,0,,,,,2,r,False,,,,j,T_nontarget,3,,1728,100896,1 (842).jpg,0.0-25.0-1.0-0.4,0,True,,0,True,,True,False,,False,False,,1,0,10,0,,,,,,,0,,,,,images/1 (842).jpg,,A,,,8,0,,100896,,,finalTest,,0,0,449,25851,0.44,1214,image-keyboard-response,,,,"studied only, not in trial",,,,2562
100896,DmhB2uA5uZ02xUeday5p,,,,True,,,2,r,,,,,,T_nontarget,3,,1728,100896,1 (1214).jpg,0.0-13.0-2.0-0.14,0,False,True,0,,True,True,False,False,False,True,9,9,10,,0,,,1,,,,,,,,,images/1 (1214).jpg,Cn+1,Cn,,15,15,0,,100896,,,initial_study,0,0,11,0,18256,0.31,629,image-keyboard-response,1,0,1,"studied only, in next trial",,,,2562
100896,Ds1cssTIIW12IxtGkFcl,,,,False,,,2,r,,,,,,T_nontarget,3,,1728,100896,1 (1300).jpg,0.0-9.0-2.0-0.3,0,True,True,0,,True,True,False,False,False,False,5,5,0,6,0,,,1,,,,,,,,,images/1 (1300).jpg,A,A,,4,4,0,,100896,,,initial_study,0,0,0,291,13238,0.23,314,image-keyboard-response,1,0,0,"studied only, not in trial",,,,2562
100896,DvYO3fwz5d7YPz0yd1Xx,,0,,,,,2,r,False,False,False,,j,T_foil,3,,1728,100896,1 (2198).jpg,0.0-24.0-1.0-0.17,0,True,,0,True,,False,False,,True,True,,4,5,9,4,,,,,,,0,,,,,images/1 (2198).jpg,,Fnn,,,0,0,,100896,,,finalTest,,17,10,414,25427,0.43,1179,image-keyboard-response,,,,"tested only, in next trial",,,,2562
100896,DzGSk0iDh8T8fym5PS6N,,0,,,,,2,r,False,,,,j,T_nontarget,3,,1728,100896,1 (1570).jpg,0.0-16.0-1.0-0.39,0,True,,0,True,,True,False,,False,False,,6,0,1,0,,,,,,,0,,,,,images/1 (1570).jpg,,A,,,14,0,,100896,,,finalTest,,0,0,40,20957,0.35,805,image-keyboard-response,,,,"studied only, not in trial",,,,2562
100896,E0Fkp3OJ4vhl53oacQU2,,0,,,,,2,r,False,,,,f,F,3,,1728,100896,1 (1956).jpg,0.0-22.0-1.0-0.17,0,True,,0,False,,False,False,,False,False,,0,0,7,5,,,1,,,,0,,,,,images/1 (1956).jpg,,FF,,,0,0,,100896,,,finalTest,,0,0,318,24269,0.41,1083,image-keyboard-response,,,,final Foil,,,,2562
100896,E4iSQNIcSyrMUggwuqdL,,0,,False,,,2,r,False,False,,,j,T_target,3,,1728,100896,1 (970).jpg,0.0-11.0-10.0-0.12,0,True,True,0,False,True,True,False,True,True,False,7,7,False,,0,,,1,,,,0,,,,,images/1 (970).jpg,B,B,,25,25,0,,100896,,,initialTest_response,13,13,0,171,16439,0.28,519,image-keyboard-response,1,1,0,"current target, not in next trial",,,,2562
100896,E4iXwI7veLItEQ9DdZsk,,0,,False,,,2,r,False,False,,,j,T_target,3,,1728,100896,1 (1989).jpg,0.0-5.0-10.0-0.20,0,False,True,0,False,True,True,False,True,True,False,1,1,False,,0,,,1,,,,0,,,,,images/1 (1989).jpg,B,B,,25,25,0,,100896,,,initialTest_response,21,21,0,0,9310,0.16,71,image-keyboard-response,1,1,0,"current target, not in next trial",,,,2562
100896,E7YrdiA3zxNKup6iANXX,,,,,,,2,r,,,,,,,3,,1728,100896,,0.0-9.0-5.0-0.3,0,,,0,,,,,,,,5,,,,,,,,,4,,,,,,,6,,,6,,,,,100896,,50,digitPresentation,,,,,13626,0.23,346,html-keyboard-response,,,,,,,,2562
100896,EBeCKYp56PVB2lsNRkCx,,,,False,,,2,r,,,,,,T_target,3,,1728,100896,1 (751).jpg,0.0-12.0-2.0-0.9,0,True,True,0,,True,True,False,True,True,False,8,8,0,8,0,,,1,,,,,,,,,images/1 (751).jpg,B,B,,10,10,0,,100896,,,initial_study,23,23,0,365,16973,0.29,548,image-keyboard-response,1,1,0,"current target, not in next trial",,,,2562
100896,ECOaGgxnUXu28LcT0Hug,,0,,False,,,2,r,False,False,,,j,T_target,3,,1728,100896,1 (1807).jpg,0.0-14.0-10.0-0.3,0,True,True,0,False,True,True,False,True,True,False,10,10,0,,0,,,1,,,,0,,,,,images/1 (1807).jpg,B,B,,2,2,0,,100896,,,initialTest_response,4,4,0,44,19860,0.34,738,image-keyboard-response,1,1,0,"current target, not in next trial",,,,2562
100896,EEQEYiuXTqoPTDqN4PrF,,0,,True,,,2,r,False,False,False,,f,T_foil,3,,1728,100896,1 (609).jpg,0.0-12.0-10.0-0.27,0,False,False,0,False,False,True,False,True,True,True,8,7,8,,0,,,2,,,,0,,,,,images/1 (609).jpg,Dn,Dn,,0,5,0,,100896,,,initialTest_response,28,5,28,0,18002,0.31,610,image-keyboard-response,1,1,1,"current target, in next trial, from last trial",,,,2562
100896,EHeZsBoPtFX7JhYIkdcx,,0,,,,,2,r,False,,,,f,F,3,,1728,100896,1 (285).jpg,0.0-23.0-1.0-0.33,0,True,,0,False,,False,False,,False,False,,0,0,8,6,,,1,,,,0,,,,,images/1 (285).jpg,,FF,,,0,0,,100896,,,finalTest,,0,0,382,25045,0.42,1147,image-keyboard-response,,,,final Foil,,,,2562
100896,EOfh8CpSgLbKuChSFsNK,,,,False,,,2,r,,,,,,T_nontarget,3,,1728,100896,1 (1460).jpg,0.0-11.0-2.0-0.11,0,False,True,0,,True,True,False,False,False,False,7,7,0,,0,,,1,,,,,,,,,images/1 (1460).jpg,A,A,,12,12,0,,100896,,,initial_study,0,0,0,0,15783,0.27,474,image-keyboard-response,1,0,0,"studied only, not in trial",,,,2562
100896,EV1nXkobTLCJtHWjgPRz,,,,,,,2,r,,,,,,,3,,1728,100896,,0.0-14.0-5.0-0.7,0,,,0,,,,,,,,10,,,,,,,,,8,,,,,,,4,,,4,,,,,100896,,57,digitPresentation,,,,,19732,0.33,730,html-keyboard-response,,,,,,,,2562
100896,EaSXQtDKP0SejfDSceAI,,0,,True,,,2,r,False,False,False,,f,T_foil,3,,1728,100896,1 (2324).jpg,0.0-11.0-10.0-0.17,0,True,False,0,False,False,False,False,True,False,True,7,6,7,,0,,,2,,,,0,,,,,images/1 (2324).jpg,Fnn,Fnn,,0,0,0,,100896,,,initialTest_response,18,0,18,354,16550,0.28,524,image-keyboard-response,0,1,1,"tested only, in next trial, from last trial",,,,2562
100896,EbQL4GCPXmQmMtyUoaRP,,0,,,,,2,r,False,,,,f,F,3,,1728,100896,1 (140).jpg,0.0-24.0-1.0-0.4,0,True,,0,False,,False,False,,False,False,,0,0,9,0,,,1,,,,0,,,,,images/1 (140).jpg,,FF,,,0,0,,100896,,,finalTest,,0,0,401,25276,0.43,1166,image-keyboard-response,,,,final Foil,,,,2562
100896,EbU2R0fbntFUsGNi6x7c,,0,,,,,2,r,False,False,,,j,T_target,3,,1728,100896,1 (2023).jpg,0.0-17.0-1.0-0.3,0,True,,0,True,,True,False,,True,False,,10,0,2,0,,,,,,,0,,,,,images/1 (2023).jpg,,Dn,,,4,0,,100896,,,finalTest,,6,0,64,21239,0.36,829,image-keyboard-response,,,,"current target, in next trial",,,,2562
100896,Ed62f2UA3E044tBk0WQC,,0,,True,,,2,r,False,False,False,,f,T_foil,3,,1728,100896,1 (360).jpg,0.0-6.0-10.0-0.26,0,False,False,0,False,False,True,False,True,True,True,2,1,2,,0,,,2,,,,0,,,,,images/1 (360).jpg,Dn,Dn,,0,9,0,,100896,,,initialTest_response,27,9,27,0,10676,0.18,153,image-keyboard-response,1,1,1,"current target, in next trial, from last trial",,,,2562
100896,Ef88A6NOwNbZozCmDd7m,,0,,,,,2,r,False,,,,f,F,3,,1728,100896,1 (2030).jpg,0.0-21.0-1.0-0.28,0,True,,0,False,,False,False,,False,False,,0,0,6,1,,,1,,,,0,,,,,images/1 (2030).jpg,,FF,,,0,0,,100896,,,finalTest,,0,0,281,23837,0.40,1046,image-keyboard-response,,,,final Foil,,,,2562
100896,EfhqVj8iwET5nWUUuBfR,,,,False,,,2,r,,,,,,T_nontarget,3,,1728,100896,1 (346).jpg,0.0-14.0-2.0-0.5,0,True,True,0,,True,True,False,False,False,False,10,10,0,10,0,,,1,,,,,,,,,images/1 (346).jpg,A,A,,6,6,0,,100896,,,initial_study,0,0,0,447,19350,0.33,696,image-keyboard-response,1,0,0,"studied only, not in trial",,,,2562
100896,EhP5Hb5BkjlGKLvFWvDx,,,,,,,2,r,,,,,,,3,,1728,100896,,0.0-10.0-5.0-0.7,0,,,0,,,,,,,,6,,,,,,,,,8,,,,,,,9,,,9,,,,,100896,,49,digitPresentation,,,,,14889,0.25,426,html-keyboard-response,,,,,,,,2562
100896,Eod4SjZZuEMBB50Z1RTV,,0,,,,,2,r,False,,,,j,T_target,3,,1728,100896,1 (2373).jpg,0.0-23.0-1.0-0.25,0,True,,0,True,,True,False,,True,False,,7,0,8,0,,,,,,,0,,,,,images/1 (2373).jpg,,B,,,27,0,,100896,,,finalTest,,25,0,374,24952,0.42,1139,image-keyboard-response,,,,"current target, not in next trial",,,,2562
100896,EsCekyNYm38Hm2kzV9xQ,,0,,,,,2,r,False,,,,j,T_target,3,,1728,100896,1 (2161).jpg,0.0-19.0-1.0-0.11,0,True,,0,True,,True,False,,True,False,,7,0,4,0,,,,,,,0,,,,,images/1 (2161).jpg,,B,,,29,0,,100896,,,finalTest,,1,0,168,22491,0.38,933,image-keyboard-response,,,,"current target, not in next trial",,,,2562
100896,EwRVQMifRswoVtp02tvT,,,,False,,,2,r,,,,,,T_nontarget,3,,1728,100896,1 (2363).jpg,0.0-7.0-2.0-0.29,0,True,True,0,,True,True,False,False,False,False,3,3,0,7,0,,,1,,,,,,,,,images/1 (2363).jpg,A,A,,30,30,0,,100896,,,initial_study,0,0,0,343,11130,0.19,188,image-keyboard-response,1,0,0,"studied only, not in trial",,,,2562
100896,FB8x6RL0LbaC1of3BWec,,0,,,,,2,r,False,,,,f,F,3,,1728,100896,1 (2202).jpg,0.0-19.0-1.0-0.3,0,True,,0,False,,False,False,,False,False,,0,0,4,9,,,1,,,,0,,,,,images/1 (2202).jpg,,FF,,,0,0,,100896,,,finalTest,,0,0,160,22395,0.38,925,image-keyboard-response,,,,final Foil,,,,2562
100896,FDAPEiPqqFhOfQB8AngK,,0,,False,,,2,r,False,False,,,f,T_foil,3,,1728,100896,1 (523).jpg,0.0-8.0-10.0-0.10,0,True,True,0,False,False,False,False,True,True,False,4,4,False,3,0,,,1,,,,0,,,,,images/1 (523).jpg,Fn+1,Fn,,0,0,0,,100896,,,initialTest_response,11,11,0,148,12729,0.22,289,image-keyboard-response,0,1,0,"tested only, not in next trial",,,,2562
100896,FF2iIe3EtHGY6geoy1tZ,,0,,,,,2,r,False,,,,f,F,3,,1728,100896,1 (834).jpg,0.0-22.0-1.0-0.39,0,True,,0,False,,False,False,,False,False,,0,0,7,5,,,1,,,,0,,,,,images/1 (834).jpg,,FF,,,0,0,,100896,,,finalTest,,0,0,340,24545,0.41,1105,image-keyboard-response,,,,final Foil,,,,2562
100896,FGGpebcPwYfWExi8VhcA,,0,,,,,2,r,False,,,,j,T_target,3,,1728,100896,1 (1800).jpg,0.0-24.0-1.0-0.44,0,True,,0,True,,True,False,,True,False,,4,0,9,0,,,,,,,0,,,,,images/1 (1800).jpg,,B,,,10,0,,100896,,,finalTest,,27,0,441,25749,0.43,1206,image-keyboard-response,,,,"current target, not in next trial",,,,2562
100896,FJkDZe2Etk8gjtLLsvkb,,0,,True,,,2,r,False,False,,,j,T_target,3,,1728,100896,1 (160).jpg,0.0-13.0-10.0-0.26,0,False,True,0,False,True,True,False,True,True,True,9,9,10,,0,,,1,,,,0,,,,,images/1 (160).jpg,Dn+1,Dn,,17,17,0,,100896,,,initialTest_response,27,27,12,0,19182,0.33,685,image-keyboard-response,1,1,1,"current target, in next trial",,,,2562
100896,FQMEpuXvUmZKd9asi6PV,,0,,,,,2,r,False,,,,j,T_foil,3,,1728,100896,1 (291).jpg,0.0-20.0-1.0-0.16,0,True,,0,True,,False,False,,True,False,,1,False,5,1,,,,,,,0,,,,,images/1 (291).jpg,,Fn,,,0,0,,100896,,,finalTest,,24,0,221,23131,0.39,986,image-keyboard-response,,,,"tested only, not in next trial",,,,2562
100896,FRWW8grRqspiTHxTaPvP,,0,,False,,,2,r,False,False,,,f,T_foil,3,,1728,100896,1 (1854).jpg,0.0-14.0-10.0-0.2,0,True,True,0,False,False,False,False,True,True,False,10,10,0,5,0,,,1,,,,0,,,,,images/1 (1854).jpg,Fn+1,Fn,,0,0,0,,100896,,,initialTest_response,3,3,0,241,19838,0.34,737,image-keyboard-response,0,1,0,"tested only, not in next trial",,,,2562
100896,FU4ZUNGd4DdUjBP5iEXw,,0,,True,,,2,r,False,,False,,f,T_foil,3,,1728,100896,1 (2401).jpg,0.0-7.0-10.0-0.2,0,True,False,0,False,False,True,False,True,False,True,3,2,3,,0,,,2,,,,0,,,,,images/1 (2401).jpg,Cn,Cn,,0,9,0,,100896,,,initialTest_response,3,0,3,364,11351,0.19,205,image-keyboard-response,1,0,1,"studied only, in next trial, from last trial",,,,2562
100896,FUSkjTZ6d3sLwsChUC8J,,0,,,,,2,r,False,,,,j,T_target,3,,1728,100896,1 (337).jpg,0.0-17.0-1.0-0.26,0,True,,0,True,,True,False,,True,False,,7,0,2,0,,,,,,,0,,,,,images/1 (337).jpg,,B,,,23,0,,100896,,,finalTest,,14,0,87,21523,0.36,852,image-keyboard-response,,,,"current target, not in next trial",,,,2562
100896,FVC2YxWNSUligMDVxk2P,,0,,,,,2,r,False,False,False,,j,T_target,3,,1728,100896,1 (2312).jpg,0.0-17.0-1.0-0.41,0,True,,0,True,,True,False,,True,True,,3,4,2,0,,,,,,,0,,,,,images/1 (2312).jpg,,Dn,,,8,0,,100896,,,finalTest,,25,19,102,21702,0.37,867,image-keyboard-response,,,,"current target, in next trial",,,,2562
100896,FW74doRDO6NGMI6b079q,,,,True,,,2,r,,,,,,T_nontarget,3,,1728,100896,1 (234).jpg,0.0-5.0-2.0-0.23,0,False,True,0,,True,True,False,False,False,True,1,1,2,,0,,,1,,,,,,,,,images/1 (234).jpg,Cn+1,Cn,,24,24,0,,100896,,,initial_study,0,0,1,0,8623,0.15,30,image-keyboard-response,1,0,1,"studied only, in next trial",,,,2562
100896,FWHsi7BQMS4xxYYo372t,,0,,False,,,2,r,False,False,,,j,T_target,3,,1728,100896,1 (2390).jpg,0.0-6.0-10.0-0.8,0,True,True,0,False,True,True,False,True,True,False,2,2,False,,0,,,1,,,,0,,,,,images/1 (2390).jpg,B,B,,2,2,0,,100896,,,initialTest_response,9,9,0,420,10256,0.18,135,image-keyboard-response,1,1,0,"current target, not in next trial",,,,2562
100896,FdH1Mao80ATC1RQD9CfZ,,,,False,,,2,r,,,,,,T_target,3,,1728,100896,1 (1403).jpg,0.0-7.0-2.0-0.9,0,False,True,0,,True,True,False,True,True,False,3,3,0,,0,,,1,,,,,,,,,images/1 (1403).jpg,B,B,,10,10,0,,100896,,,initial_study,8,8,0,0,10895,0.19,168,image-keyboard-response,1,1,0,"current target, not in next trial",,,,2562
100896,FnQk32SThmOEsghcG2aL,,,,,,,2,r,,,,,,,3,,1728,100896,,0.0-7.0-7.0-0.0,0,,,0,,,,,,,,,,,,,,,,,,,,,,,,<p background:white>INCORRECT!</p>,,,,,,,,100896,,,promptfeedback,,,,,11273,0.19,200,html-keyboard-response,,,,,,,,2562
100896,FpvYeC7RPmTNcjWdOwS2,,0,,True,,,2,r,False,False,,,f,T_foil,3,,1728,100896,1 (74).jpg,0.0-7.0-10.0-0.25,0,True,True,0,False,False,False,False,True,True,True,3,3,4,7,0,,,1,,,,0,,,,,images/1 (74).jpg,Fnn+1,Fnn,,0,0,0,,100896,,,initialTest_response,26,26,6,306,11857,0.20,228,image-keyboard-response,0,1,1,"tested only, in next trial",,,,2562
100896,Ft63GSc5RJmD0cC6klHF,,0,,,,,2,r,False,,,,j,T_target,3,,1728,100896,1 (100).jpg,0.0-24.0-1.0-0.22,0,True,,0,True,,True,False,,True,False,,4,0,9,0,,,,,,,0,,,,,images/1 (100).jpg,,B,,,29,0,,100896,,,finalTest,,10,0,419,25483,0.43,1184,image-keyboard-response,,,,"current target, not in next trial",,,,2562
100896,Fwok2JRAAAiKK7DonCaq,,,,True,,,2,r,,,,,,T_target,3,,1728,100896,1 (2109).jpg,0.0-6.0-2.0-0.14,0,True,True,0,,True,True,False,True,True,True,2,2,3,9,0,,,1,,,,,,,,,images/1 (2109).jpg,Dn+1,Dn,,15,15,0,,100896,,,initial_study,21,21,15,397,9725,0.17,97,image-keyboard-response,1,1,1,"current target, in next trial",,,,2562
100896,Fxo5qCRgdH7qvBiIlzTI,,,,,,,2,r,,,,,,,3,,1728,100896,,0.0-6.0-0.0-0.0,0,,,0,,,,,,,,,,,,,,,,,,,,,,,,"
    <p style='text-align: justify;color: black;background: white;font: caption-;''>
        Now you have finished the practice. When ready, start the study list with the enter key.</p><p> Remember, respond based only on the list you JUST studied. If a picture appeared in a previous list but not the current one, press the <strong>""F""</strong> key.</p>
    ",,,,,,,,100896,,,,,,,,9530,0.16,81,html-keyboard-response,,,,,,,,2562
100896,Fy11r45q7Addwdfm5zRB,,0,,False,,,2,r,False,False,,,j,T_target,3,,1728,100896,1 (878).jpg,0.0-5.0-10.0-0.26,0,False,True,0,False,True,True,False,True,True,False,1,1,False,,0,,,1,,,,0,,,,,images/1 (878).jpg,B,B,,1,1,0,,100896,,,initialTest_response,27,27,0,0,9442,0.16,77,image-keyboard-response,1,1,0,"current target, not in next trial",,,,2562
100896,Fz56rQH46IIPHRtinONj,,0,,,,,2,r,False,,,,f,F,3,,1728,100896,1 (797).jpg,0.0-18.0-1.0-0.25,0,True,,0,False,,False,False,,False,False,,0,0,3,0,,,1,,,,0,,,,,images/1 (797).jpg,,FF,,,0,0,,100896,,,finalTest,,0,0,134,22087,0.37,899,image-keyboard-response,,,,final Foil,,,,2562
100896,G0y58j0tbQ35A1rTRd2F,,0,,,,,2,r,False,False,False,,j,T_target,3,,1728,100896,1 (882).jpg,0.0-22.0-1.0-0.2,0,True,,0,True,,True,False,,True,True,,6,7,7,0,,,,,,,0,,,,,images/1 (882).jpg,,Dn,,,9,0,,100896,,,finalTest,,3,26,303,24092,0.41,1068,image-keyboard-response,,,,"current target, in next trial",,,,2562
100896,G6KBnT4zZOaK1MjgImfd,,0,,False,,,2,r,False,False,,,j,T_target,3,,1728,100896,1 (1009).jpg,0.0-12.0-10.0-0.25,0,True,True,0,False,True,True,False,True,True,False,8,8,False,,0,,,1,,,,0,,,,,images/1 (1009).jpg,B,B,,3,3,0,,100896,,,initialTest_response,26,26,0,434,17955,0.30,608,image-keyboard-response,1,1,0,"current target, not in next trial",,,,2562
