parent_document_id,document_id,HaveSeenImages,accumulated_accuracy,all_accumulated_accuracy,anRepeatedItem,browser,browser_version,codeversion,condition,correct,correct_appear1,correct_appear2,correct_response,correct_response_key,current_assignmentTypesWithinList,designversion,failed_audio,failed_images,failed_video,fullscreen,height,id,id_picName,internal_node_id,is_changedfullscreen,is_chosenFinal,is_currentObjAppear1,is_finished,is_old,is_studied_appear0_initial,is_studied_appear1_initial,is_studied_appear2_initial,is_tested_appear0_initial,is_tested_appear1_initial,is_tested_appear2_initial,listNum_appear0_initial,listNum_appear1_initial,listNum_appear2_initial,listNum_infinalOrder,listNum_pickedFrom,microphone,mobile,num_CurrObjAppear,os,presPos_digit,question_order,recognition_correct,response,responsesum,rt,session_id,stimulus,stimulusConditionName_nPlusOneTrial,stimulusConditions,stimulus_id,studyPos_appear0_initial,studyPos_appear1_initial,studyPos_appear2_initial,study_id,subject_id,success,sum_currList,task,testPos_appear0_initial,testPos_appear1_initial,testPos_appear2_initial,testPos_final,time_elapsed,timeout,timepassed_mins,timestamp,trial_index,trial_type,type_code_studiedCurr,type_code_testiedCurr,type_code_testiedNext,type_comment,vsync_rate,webaudio,webcam,width
6307f3c967020d1202332b77,0NRTo3aIj94mSNGFiohy,Yes,0.9057971014492754,0.8535353535353535,,,,2.3,r,True,,,,f,F,3,,,,,768,6307f3c967020d1202332b77,1 (329).jpg,0.0-18.0-1.0-0.29,0,True,,1,False,,False,False,,False,False,,0,0,3,1,,,1,,,,1,f,,1033,68177c12b166747e3416c165,images/1 (329).jpg,,FF,,,0,0,6814acf7a2b0960317ac048d,6307f3c967020d1202332b77,,,finalTest,,0,0,138,1967979,,32.81,2025-05-04 15:25:32.154000+00:00,903,image-keyboard-response,,,,final Foil,,,,1366
6307f3c967020d1202332b77,0PHuz3dGHkNEAk60yGt9,Yes,,0.8535353535353535,False,,,2.3,r,,,,,,T_nontarget,3,,,,,768,6307f3c967020d1202332b77,1 (2271).jpg,0.0-13.0-2.0-0.9,0,True,True,1,,True,True,False,False,False,False,9,9,0,7,0,,,1,,,,,,,,68177c12b166747e3416c165,images/1 (2271).jpg,A,A,,10,10,0,6814acf7a2b0960317ac048d,6307f3c967020d1202332b77,,,initial_study,0,0,0,343,1465760,,24.44,2025-05-04 15:25:32.154000+00:00,624,image-keyboard-response,1,0,0,"studied only, not in trial",,,,1366
6307f3c967020d1202332b77,0S2Z3KlKFmRG1eCPRzlB,Yes,,0.8535353535353535,,,,2.3,r,,,,,,,3,,,,,768,6307f3c967020d1202332b77,,0.0-10.0-0.0-0.0,0,,,1,,,,,,,,,,,,,,,,,,,,enter,,6460,68177c12b166747e3416c165,"
    <p style='text-align: justify;color: black;background: white;font: caption-;''>
        Press the 'enter' key to see the next list of pictures. </p>
    ",,,,,,,6814acf7a2b0960317ac048d,6307f3c967020d1202332b77,,,,,,,,989125,,16.49,2025-05-04 15:25:22.473000+00:00,385,html-keyboard-response,,,,,,,,1366
6307f3c967020d1202332b77,0T0J6fDr98zXHOmRGnMn,Yes,0.911764705882353,0.8535353535353535,,,,2.3,r,True,,,,j,T_target,3,,,,,768,6307f3c967020d1202332b77,1 (486).jpg,0.0-17.0-1.0-0.7,0,True,,1,True,,True,False,,True,False,,1,0,2,0,,,,,,,1,j,,906,68177c12b166747e3416c165,images/1 (486).jpg,,B,,,16,0,6814acf7a2b0960317ac048d,6307f3c967020d1202332b77,,,finalTest,,16,0,68,1896484,,31.62,2025-05-04 15:25:32.154000+00:00,833,image-keyboard-response,,,,"current target, not in next trial",,,,1366
6307f3c967020d1202332b77,0VR1102eZU2Qmrl3H7eO,Yes,0.9012345679012346,0.8535353535353535,,,,2.3,r,True,,,,f,F,3,,,,,768,6307f3c967020d1202332b77,1 (2119).jpg,0.0-19.0-1.0-0.5,0,True,,1,False,,False,False,,False,False,,0,0,4,0,,,1,,,,1,f,,1045,68177c12b166747e3416c165,images/1 (2119).jpg,,FF,,,0,0,6814acf7a2b0960317ac048d,6307f3c967020d1202332b77,,,finalTest,,0,0,162,1996256,,33.28,2025-05-04 15:25:32.154000+00:00,927,image-keyboard-response,,,,final Foil,,,,1366
6307f3c967020d1202332b77,0eqPhTFAy1SVwFZclOun,Yes,0.8828828828828827,0.8535353535353535,,,,2.3,r,True,,,,f,F,3,,,,,768,6307f3c967020d1202332b77,1 (1480).jpg,0.0-22.0-1.0-0.32,0,True,,1,False,,False,False,,False,False,,0,0,7,0,,,1,,,,1,f,,1053,68177c12b166747e3416c165,images/1 (1480).jpg,,FF,,,0,0,6814acf7a2b0960317ac048d,6307f3c967020d1202332b77,,,finalTest,,0,0,333,2217534,,36.97,2025-05-04 15:25:41.018000+00:00,1098,image-keyboard-response,,,,final Foil,,,,1366
6307f3c967020d1202332b77,0lnBhu2aAuIFlGegKnPV,Yes,,0.8535353535353535,False,,,2.3,r,,,,,,T_target,3,,,,,768,6307f3c967020d1202332b77,1 (747).jpg,0.0-7.0-2.0-0.12,0,False,True,1,,True,True,False,True,True,False,3,3,0,,0,,,1,,,,,,,,68177c12b166747e3416c165,images/1 (747).jpg,B,B,,13,13,0,6814acf7a2b0960317ac048d,6307f3c967020d1202332b77,,,initial_study,28,28,0,0,584317,,9.75,2025-05-04 15:25:22.473000+00:00,171,image-keyboard-response,1,1,0,"current target, not in next trial",,,,1366
6307f3c967020d1202332b77,0pejUAw4NXVtZoySwisk,Yes,0.872340425531915,0.8535353535353535,,,,2.3,r,True,,,,j,T_target,3,,,,,768,6307f3c967020d1202332b77,1 (2323).jpg,0.0-16.0-1.0-0.46,0,True,,1,True,,True,False,,True,False,,4,0,1,0,,,,,,,1,j,,964,68177c12b166747e3416c165,images/1 (2323).jpg,,B,,,5,0,6814acf7a2b0960317ac048d,6307f3c967020d1202332b77,,,finalTest,,17,0,47,1873589,,31.23,2025-05-04 15:25:32.154000+00:00,812,image-keyboard-response,,,,"current target, not in next trial",,,,1366
6307f3c967020d1202332b77,0rir2PEivulC5pLO0IXT,Yes,0.9029850746268657,0.8535353535353535,,,,2.3,r,True,,,,j,T_nontarget,3,,,,,768,6307f3c967020d1202332b77,1 (202).jpg,0.0-18.0-1.0-0.25,0,True,,1,True,,True,False,,False,False,,8,0,3,0,,,,,,,1,j,,943,68177c12b166747e3416c165,images/1 (202).jpg,,A,,,8,0,6814acf7a2b0960317ac048d,6307f3c967020d1202332b77,,,finalTest,,0,0,134,1963822,,32.74,2025-05-04 15:25:32.154000+00:00,899,image-keyboard-response,,,,"studied only, not in trial",,,,1366
6307f3c967020d1202332b77,0roLzwvnqRPwUCLddYlb,Yes,,0.8535353535353535,,,,2.3,r,,,,,,,3,,,,,768,6307f3c967020d1202332b77,,0.0-11.0-3.0-0.0,0,,,1,,,,,,,,,,,,,,,,,,,,,,,68177c12b166747e3416c165,Summing up the digits as they appear,,,,,,,6814acf7a2b0960317ac048d,6307f3c967020d1202332b77,,,prompt,,,,,1204473,,20.08,2025-05-04 15:25:22.473000+00:00,493,html-keyboard-response,,,,,,,,1366
6307f3c967020d1202332b77,0v3IbYjF7e0oIea3stkP,Yes,1,0.8535353535353535,True,,,2.3,r,True,,True,,f,T_foil,3,,,,,768,6307f3c967020d1202332b77,1 (671).jpg,0.0-6.0-10.0-0.7,0,False,False,1,False,False,True,False,True,False,True,2,1,2,,0,,,2,,,,1,f,,1333,68177c12b166747e3416c165,images/1 (671).jpg,Cn,Cn,,0,25,0,6814acf7a2b0960317ac048d,6307f3c967020d1202332b77,,,initialTest_response,8,0,8,0,523212,,8.73,2025-05-04 15:25:22.473000+00:00,134,image-keyboard-response,1,0,1,"studied only, in next trial, from last trial",,,,1366
6307f3c967020d1202332b77,0wIojjpZcHRaPowrl7yI,Yes,0.8776824034334763,0.8535353535353535,,,,2.3,r,True,,,,j,T_target,3,,,,,768,6307f3c967020d1202332b77,1 (2246).jpg,0.0-25.0-1.0-0.21,0,True,,1,True,,True,False,,True,False,,7,0,10,0,,,,,,,1,j,,1087,68177c12b166747e3416c165,images/1 (2246).jpg,,B,,,24,0,6814acf7a2b0960317ac048d,6307f3c967020d1202332b77,,,finalTest,,21,0,466,2412230,,40.21,2025-05-04 15:25:41.018000+00:00,1231,image-keyboard-response,,,,"current target, not in next trial",,,,1366
6307f3c967020d1202332b77,16hYXZkaQWHphMllCXxo,Yes,0.8883248730964466,0.8535353535353535,,,,2.3,r,True,True,True,,j,T_foil,3,,,,,768,6307f3c967020d1202332b77,1 (1551).jpg,0.0-23.0-1.0-0.45,0,True,,1,True,,False,False,,True,True,,4,5,8,4,,,,,,,1,j,,992,68177c12b166747e3416c165,images/1 (1551).jpg,,Fnn,,,0,0,6814acf7a2b0960317ac048d,6307f3c967020d1202332b77,,,finalTest,,15,13,394,2301992,,38.37,2025-05-04 15:25:41.018000+00:00,1159,image-keyboard-response,,,,"tested only, in next trial",,,,1366
6307f3c967020d1202332b77,1ATJGtv4nThIS2M3qfjP,Yes,0.904,0.8535353535353535,,,,2.3,r,True,,,,f,F,3,,,,,768,6307f3c967020d1202332b77,1 (2149).jpg,0.0-18.0-1.0-0.16,0,True,,1,False,,False,False,,False,False,,0,0,3,3,,,1,,,,1,f,,926,68177c12b166747e3416c165,images/1 (2149).jpg,,FF,,,0,0,6814acf7a2b0960317ac048d,6307f3c967020d1202332b77,,,finalTest,,0,0,125,1953987,,32.57,2025-05-04 15:25:32.154000+00:00,890,image-keyboard-response,,,,final Foil,,,,1366
6307f3c967020d1202332b77,1BkldDmDxK6fRhf3Vq43,Yes,0.8333333333333334,0.8535353535353535,True,,,2.3,r,True,True,True,,f,T_foil,3,,,,,768,6307f3c967020d1202332b77,1 (1714).jpg,0.0-12.0-10.0-0.5,0,True,False,1,False,False,False,False,True,False,True,8,7,8,,0,,,2,,,,1,f,,1472,68177c12b166747e3416c165,images/1 (1714).jpg,Fnn,Fnn,,0,0,0,6814acf7a2b0960317ac048d,6307f3c967020d1202332b77,,,initialTest_response,6,0,6,76,1403479,,23.40,2025-05-04 15:25:32.154000+00:00,588,image-keyboard-response,0,1,1,"tested only, in next trial, from last trial",,,,1366
6307f3c967020d1202332b77,1FRPw5bQJcdN436aGO4T,Yes,1,0.8535353535353535,False,,,2.3,r,True,True,,,j,T_target,3,,,,,768,6307f3c967020d1202332b77,1 (1403).jpg,0.0-8.0-10.0-0.3,0,False,True,1,False,True,True,False,True,True,False,4,4,False,,0,,,1,,,,1,j,,1087,68177c12b166747e3416c165,images/1 (1403).jpg,B,B,,18,18,0,6814acf7a2b0960317ac048d,6307f3c967020d1202332b77,,,initialTest_response,4,4,0,0,806567,,13.45,2025-05-04 15:25:22.473000+00:00,282,image-keyboard-response,1,1,0,"current target, not in next trial",,,,1366
6307f3c967020d1202332b77,1G6uvReTkliJ19LkXjlf,Yes,,0.8535353535353535,,,,2.3,r,,,,,,,3,,,,,768,6307f3c967020d1202332b77,,0.0-9.0-5.0-0.2,0,,,1,,,,,,,,5,,,,,,,,,3,,,,,,68177c12b166747e3416c165,8,,,8,,,,6814acf7a2b0960317ac048d,6307f3c967020d1202332b77,,51,digitPresentation,,,,,917104,,15.29,2025-05-04 15:25:22.473000+00:00,345,html-keyboard-response,,,,,,,,1366
6307f3c967020d1202332b77,1KJ0yK94smz3VgeheJ7c,Yes,,0.8535353535353535,False,,,2.3,r,,,,,,T_target,3,,,,,768,6307f3c967020d1202332b77,1 (714).jpg,0.0-9.0-2.0-0.20,0,True,True,1,,True,True,False,True,True,False,5,5,0,3,0,,,1,,,,,,,,68177c12b166747e3416c165,images/1 (714).jpg,B,B,,21,21,0,6814acf7a2b0960317ac048d,6307f3c967020d1202332b77,,,initial_study,30,30,0,127,886720,,14.79,2025-05-04 15:25:22.473000+00:00,331,image-keyboard-response,1,1,0,"current target, not in next trial",,,,1366
6307f3c967020d1202332b77,1OOwI7QtAF0KqQtyHadk,Yes,0.8913043478260869,0.8535353535353535,,,,2.3,r,False,,,,j,T_foil,3,,,,,768,6307f3c967020d1202332b77,1 (914).jpg,0.0-19.0-1.0-0.27,0,True,,1,True,,False,False,,True,False,,1,False,4,1,,,,,,,0,f,,1121,68177c12b166747e3416c165,images/1 (914).jpg,,Fn,,,0,0,6814acf7a2b0960317ac048d,6307f3c967020d1202332b77,,,finalTest,,12,0,184,2024066,,33.74,2025-05-04 15:25:32.154000+00:00,949,image-keyboard-response,,,,"tested only, not in next trial",,,,1366
6307f3c967020d1202332b77,1Oia8SAUHPUHv33BtyxT,Yes,,0.8535353535353535,False,,,2.3,r,,,,,,T_target,3,,,,,768,6307f3c967020d1202332b77,1 (1055).jpg,0.0-9.0-2.0-0.14,0,False,True,1,,True,True,False,True,True,False,5,5,0,,0,,,1,,,,,,,,68177c12b166747e3416c165,images/1 (1055).jpg,B,B,,15,15,0,6814acf7a2b0960317ac048d,6307f3c967020d1202332b77,,,initial_study,1,1,0,0,873970,,14.57,2025-05-04 15:25:22.473000+00:00,325,image-keyboard-response,1,1,0,"current target, not in next trial",,,,1366
6307f3c967020d1202332b77,1V1bckyQIiXuMvS7RmDW,Yes,0.8867924528301885,0.8535353535353535,,,,2.3,r,True,,,,f,F,3,,,,,768,6307f3c967020d1202332b77,1 (1120).jpg,0.0-23.0-1.0-0.22,0,True,,1,False,,False,False,,False,False,,0,0,8,8,,,1,,,,1,f,,1363,68177c12b166747e3416c165,images/1 (1120).jpg,,FF,,,0,0,6814acf7a2b0960317ac048d,6307f3c967020d1202332b77,,,finalTest,,0,0,371,2270711,,37.85,2025-05-04 15:25:41.018000+00:00,1136,image-keyboard-response,,,,final Foil,,,,1366
6307f3c967020d1202332b77,1YoAuPCS4jRUjUhXXnp2,Yes,0.8841463414634144,0.8535353535353535,,,,2.3,r,False,,,,f,F,3,,,,,768,6307f3c967020d1202332b77,1 (801).jpg,0.0-22.0-1.0-0.27,0,True,,1,False,,False,False,,False,False,,0,0,7,4,,,1,,,,0,j,,1245,68177c12b166747e3416c165,images/1 (801).jpg,,FF,,,0,0,6814acf7a2b0960317ac048d,6307f3c967020d1202332b77,,,finalTest,,0,0,328,2210976,,36.86,2025-05-04 15:25:41.018000+00:00,1093,image-keyboard-response,,,,final Foil,,,,1366
6307f3c967020d1202332b77,1ZO8exmrpm8WkNpGXsuJ,Yes,,0.8535353535353535,False,,,2.3,r,,,,,,T_target,3,,,,,768,6307f3c967020d1202332b77,1 (1500).jpg,0.0-6.0-2.0-0.22,0,True,True,1,,True,True,False,True,True,False,2,2,0,5,0,,,1,,,,,,,,68177c12b166747e3416c165,images/1 (1500).jpg,B,B,,23,23,0,6814acf7a2b0960317ac048d,6307f3c967020d1202332b77,,,initial_study,26,26,0,235,457698,,7.64,2025-05-04 15:25:22.473000+00:00,105,image-keyboard-response,1,1,0,"current target, not in next trial",,,,1366
6307f3c967020d1202332b77,1c5GKzgGCeugiotdUUSu,Yes,0.8823529411764707,0.8535353535353535,,,,2.3,r,True,,,,f,F,3,,,,,768,6307f3c967020d1202332b77,1 (579).jpg,0.0-16.0-1.0-0.50,0,True,,1,False,,False,False,,False,False,,0,0,1,2,,,1,,,,1,f,,996,68177c12b166747e3416c165,images/1 (579).jpg,,FF,,,0,0,6814acf7a2b0960317ac048d,6307f3c967020d1202332b77,,,finalTest,,0,0,51,1878307,,31.31,2025-05-04 15:25:32.154000+00:00,816,image-keyboard-response,,,,final Foil,,,,1366
6307f3c967020d1202332b77,1cf28zFo2p4IviCkPrxg,Yes,,0.8535353535353535,,,,2.3,r,,,,,,,3,,,,,768,6307f3c967020d1202332b77,,0.0-13.0-5.0-0.7,0,,,1,,,,,,,,9,,,,,,,,,8,,,,,,68177c12b166747e3416c165,6,,,6,,,,6814acf7a2b0960317ac048d,6307f3c967020d1202332b77,,60,digitPresentation,,,,,1534633,,25.58,2025-05-04 15:25:32.154000+00:00,654,html-keyboard-response,,,,,,,,1366
6307f3c967020d1202332b77,1czqRrI3EEM45SqfDGls,Yes,,0.8535353535353535,False,,,2.3,r,,,,,,T_target,3,,,,,768,6307f3c967020d1202332b77,1 (557).jpg,0.0-13.0-2.0-0.26,0,True,True,1,,True,True,False,True,True,False,9,9,0,6,0,,,1,,,,,,,,68177c12b166747e3416c165,images/1 (557).jpg,B,B,,27,27,0,6814acf7a2b0960317ac048d,6307f3c967020d1202332b77,,,initial_study,9,9,0,258,1501793,,25.04,2025-05-04 15:25:32.154000+00:00,641,image-keyboard-response,1,1,0,"current target, not in next trial",,,,1366
6307f3c967020d1202332b77,1f7D5ppUselwQFUcAoYx,Yes,0.8944444444444445,0.8535353535353535,,,,2.3,r,True,,,,j,T_nontarget,3,,,,,768,6307f3c967020d1202332b77,1 (345).jpg,0.0-19.0-1.0-0.23,0,True,,1,True,,True,False,,False,False,,2,0,4,0,,,,,,,1,j,,1185,68177c12b166747e3416c165,images/1 (345).jpg,,A,,,12,0,6814acf7a2b0960317ac048d,6307f3c967020d1202332b77,,,finalTest,,0,0,180,2018614,,33.65,2025-05-04 15:25:32.154000+00:00,945,image-keyboard-response,,,,"studied only, not in trial",,,,1366
6307f3c967020d1202332b77,1fndPhYR4CIO4dLKlii6,Yes,,0.8535353535353535,False,,,2.3,r,,,,,,T_target,3,,,,,768,6307f3c967020d1202332b77,1 (1593).jpg,0.0-5.0-2.0-0.0,0,True,True,1,,True,True,False,True,True,False,1,1,0,10,0,,,1,,,,,,,,68177c12b166747e3416c165,images/1 (1593).jpg,B,B,,1,1,0,6814acf7a2b0960317ac048d,6307f3c967020d1202332b77,,,initial_study,6,6,0,486,224314,,3.75,2025-05-04 15:25:22.473000+00:00,7,image-keyboard-response,1,1,0,"current target, not in next trial",,,,1366
6307f3c967020d1202332b77,1k8gpn3nRrfInvWqLcSX,Yes,0.8802660753880265,0.8535353535353535,,,,2.3,r,True,,,,f,F,3,,,,,768,6307f3c967020d1202332b77,1 (1223).jpg,0.0-25.0-1.0-0.6,0,True,,1,False,,False,False,,False,False,,0,0,10,2,,,1,,,,1,f,,1351,68177c12b166747e3416c165,images/1 (1223).jpg,,FF,,,0,0,6814acf7a2b0960317ac048d,6307f3c967020d1202332b77,,,finalTest,,0,0,451,2389816,,39.84,2025-05-04 15:25:41.018000+00:00,1216,image-keyboard-response,,,,final Foil,,,,1366
6307f3c967020d1202332b77,1kaeebC39afawDXLnHUc,Yes,,0.8535353535353535,False,,,2.3,r,,,,,,T_nontarget,3,,,,,768,6307f3c967020d1202332b77,1 (572).jpg,0.0-7.0-2.0-0.29,0,False,True,1,,True,True,False,False,False,False,3,3,0,,0,,,1,,,,,,,,68177c12b166747e3416c165,images/1 (572).jpg,A,A,,30,30,0,6814acf7a2b0960317ac048d,6307f3c967020d1202332b77,,,initial_study,0,0,0,0,620333,,10.35,2025-05-04 15:25:22.473000+00:00,188,image-keyboard-response,1,0,0,"studied only, not in trial",,,,1366
6307f3c967020d1202332b77,1lTp6ThAg9527aKZyIvF,Yes,0.7222222222222222,0.8535353535353535,True,,,2.3,r,False,True,False,,f,T_foil,3,,,,,768,6307f3c967020d1202332b77,1 (284).jpg,0.0-14.0-10.0-0.17,0,True,False,1,False,False,True,False,True,True,False,10,9,0,,0,,,2,,,,0,j,,1326,68177c12b166747e3416c165,images/1 (284).jpg,Dn,Dn,,0,29,0,6814acf7a2b0960317ac048d,6307f3c967020d1202332b77,,,initialTest_response,18,29,0,330,1713285,,28.56,2025-05-04 15:25:32.154000+00:00,752,image-keyboard-response,1,1,1,"current target, in next trial, from last trial",,,,1366
6307f3c967020d1202332b77,1qVB8u7RwA3pmMGheYvk,Yes,0.75,0.8535353535353535,True,,,2.3,r,True,True,True,,f,T_foil,3,,,,,768,6307f3c967020d1202332b77,1 (2280).jpg,0.0-7.0-10.0-0.23,0,True,True,1,False,False,False,False,True,True,True,3,3,4,4,0,,,1,,,,1,f,,1127,68177c12b166747e3416c165,images/1 (2280).jpg,Fnn+1,Fnn,,0,0,0,6814acf7a2b0960317ac048d,6307f3c967020d1202332b77,,,initialTest_response,24,24,20,201,688674,,11.48,2025-05-04 15:25:22.473000+00:00,226,image-keyboard-response,0,1,1,"tested only, in next trial",,,,1366
6307f3c967020d1202332b77,1vTHrwFye7Hci0pc83hQ,Yes,,0.8535353535353535,True,,,2.3,r,,,,,,T_nontarget,3,,,,,768,6307f3c967020d1202332b77,1 (848).jpg,0.0-11.0-2.0-0.14,0,False,True,1,,True,True,False,False,False,True,7,7,8,,0,,,1,,,,,,,,68177c12b166747e3416c165,images/1 (848).jpg,Cn+1,Cn,,15,15,0,6814acf7a2b0960317ac048d,6307f3c967020d1202332b77,,,initial_study,0,0,21,0,1170573,,19.52,2025-05-04 15:25:22.473000+00:00,477,image-keyboard-response,1,0,1,"studied only, in next trial",,,,1366
6307f3c967020d1202332b77,1ypasoTyqR2Zrh0y4Rs0,Yes,,0.8535353535353535,,,,2.3,r,,,,,,,3,,,,,768,6307f3c967020d1202332b77,,0.0-12.0-7.0-0.0,0,,,1,,,,,,,,,,,,,,,,,,,,,,,68177c12b166747e3416c165,<p background:white>CORRECT!</p>,,,,,,,6814acf7a2b0960317ac048d,6307f3c967020d1202332b77,,,promptfeedback,,,,,1391008,,23.19,2025-05-04 15:25:32.154000+00:00,580,html-keyboard-response,,,,,,,,1366
6307f3c967020d1202332b77,27EhtdEvfcawoKJoK1KW,Yes,0.9,0.8535353535353535,,,,2.3,r,True,,,,j,T_nontarget,3,,,,,768,6307f3c967020d1202332b77,1 (712).jpg,0.0-19.0-1.0-0.3,0,True,,1,True,,True,False,,False,False,,4,0,4,0,,,,,,,1,j,,944,68177c12b166747e3416c165,images/1 (712).jpg,,A,,,11,0,6814acf7a2b0960317ac048d,6307f3c967020d1202332b77,,,finalTest,,0,0,160,1993856,,33.24,2025-05-04 15:25:32.154000+00:00,925,image-keyboard-response,,,,"studied only, not in trial",,,,1366
6307f3c967020d1202332b77,27Mi7KthpnosvAB0YEVp,Yes,0.8834498834498833,0.8535353535353535,,,,2.3,r,True,,,,j,T_target,3,,,,,768,6307f3c967020d1202332b77,1 (971).jpg,0.0-24.0-1.0-0.32,0,True,,1,True,,True,False,,True,False,,2,0,9,0,,,,,,,1,j,,1175,68177c12b166747e3416c165,images/1 (971).jpg,,B,,,6,0,6814acf7a2b0960317ac048d,6307f3c967020d1202332b77,,,finalTest,,1,0,429,2353057,,39.22,2025-05-04 15:25:41.018000+00:00,1194,image-keyboard-response,,,,"current target, not in next trial",,,,1366
6307f3c967020d1202332b77,2DnA6QAo9W0slTMF8LH2,Yes,0.8857142857142856,0.8535353535353535,,,,2.3,r,True,,,,f,F,3,,,,,768,6307f3c967020d1202332b77,1 (1076).jpg,0.0-23.0-1.0-0.36,0,True,,1,False,,False,False,,False,False,,0,0,8,10,,,1,,,,1,f,,1373,68177c12b166747e3416c165,images/1 (1076).jpg,,FF,,,0,0,6814acf7a2b0960317ac048d,6307f3c967020d1202332b77,,,finalTest,,0,0,385,2290305,,38.18,2025-05-04 15:25:41.018000+00:00,1150,image-keyboard-response,,,,final Foil,,,,1366
6307f3c967020d1202332b77,2RYgBNKbRjkTLYoIn7RB,Yes,,0.8535353535353535,,,,2.3,r,,,,,,,3,,,,,768,6307f3c967020d1202332b77,,0.0-27.0,0,,,1,,,,,,,,,,,,,,,,,,,,0,,20498,68177c12b166747e3416c165,"<p>Have you seen any of the images used in this experiment before?</p>
    <p>These images may be part of a shared pool and could have been used in other studies. Please let us know if you believe you have participated in a different experiment where you saw a portion of overlaps of the exact same images.</p>
    <p>Your answer will not affect your approval rating or compensation.</p>",,,,,,,6814acf7a2b0960317ac048d,6307f3c967020d1202332b77,,,survey_HaveSeenImages,,,,,2571286,,42.86,2025-05-04 15:25:41.018000+00:00,1259,html-button-response,,,,,,,,1366
6307f3c967020d1202332b77,2TeB5IHsabfe5Jrfevk1,Yes,0.7619047619047619,0.8535353535353535,False,,,2.3,r,True,True,,,j,T_target,3,,,,,768,6307f3c967020d1202332b77,1 (564).jpg,0.0-7.0-10.0-0.20,0,True,True,1,False,True,True,False,True,True,False,3,3,False,,0,,,1,,,,1,j,,908,68177c12b166747e3416c165,images/1 (564).jpg,B,B,,10,10,0,6814acf7a2b0960317ac048d,6307f3c967020d1202332b77,,,initialTest_response,21,21,0,348,685171,,11.43,2025-05-04 15:25:22.473000+00:00,223,image-keyboard-response,1,1,0,"current target, not in next trial",,,,1366
6307f3c967020d1202332b77,2WgzQklGPFu1lzLhVEAw,Yes,,0.8535353535353535,,,,2.3,r,,,,,,,3,,,,,768,6307f3c967020d1202332b77,,0.0-10.0-5.0-0.7,0,,,1,,,,,,,,6,,,,,,,,,8,,,,,,68177c12b166747e3416c165,7,,,7,,,,6814acf7a2b0960317ac048d,6307f3c967020d1202332b77,,56,digitPresentation,,,,,1080172,,18.01,2025-05-04 15:25:22.473000+00:00,426,html-keyboard-response,,,,,,,,1366
6307f3c967020d1202332b77,2XDkw0pEs3O13Lsx2kFo,Yes,,0.8535353535353535,,,,2.3,r,,,,,,,3,,,,,768,6307f3c967020d1202332b77,,0.0-7.0-8.0-0.0,0,,,1,,,,,,,,,,,,,,,,,,,,,,,68177c12b166747e3416c165,Now judge if you have seen this pictures from the list you JUST studied before the digits,,,,,,,6814acf7a2b0960317ac048d,6307f3c967020d1202332b77,,,prompt,,,,,656401,,10.95,2025-05-04 15:25:22.473000+00:00,201,html-keyboard-response,,,,,,,,1366
6307f3c967020d1202332b77,2Yj8ea6nVq5ko9WC100E,,,,,,,,,,,,,,,,,,,,,,,,,,,,,,,,,,,,,,,,,,,,,,,,,,,,,,,,,,,,,,warmup,,,,,,,,,,,,,,,,,,
6307f3c967020d1202332b77,2ZphfXaHUXFXzON4ws4w,Yes,0.8333333333333334,0.8535353535353535,False,,,2.3,r,True,True,,,f,T_foil,3,,,,,768,6307f3c967020d1202332b77,1 (888).jpg,0.0-7.0-10.0-0.5,0,True,True,1,False,False,False,False,True,True,False,3,3,False,7,0,,,1,,,,1,f,,1338,68177c12b166747e3416c165,images/1 (888).jpg,Fn+1,Fn,,0,0,0,6814acf7a2b0960317ac048d,6307f3c967020d1202332b77,,,initialTest_response,6,6,0,307,666150,,11.11,2025-05-04 15:25:22.473000+00:00,208,image-keyboard-response,0,1,0,"tested only, not in next trial",,,,1366
6307f3c967020d1202332b77,2f7bSAiV15DOaOPoezSc,Yes,0.9145299145299145,0.8535353535353535,,,,2.3,r,True,,,,j,T_nontarget,3,,,,,768,6307f3c967020d1202332b77,1 (388).jpg,0.0-18.0-1.0-0.8,0,True,,1,True,,True,False,,False,False,,8,0,3,0,,,,,,,1,j,,985,68177c12b166747e3416c165,images/1 (388).jpg,,A,,,2,0,6814acf7a2b0960317ac048d,6307f3c967020d1202332b77,,,finalTest,,0,0,117,1946397,,32.45,2025-05-04 15:25:32.154000+00:00,882,image-keyboard-response,,,,"studied only, not in trial",,,,1366
6307f3c967020d1202332b77,2hIQWigWFhl6TaYwich0,Yes,0.9,0.8535353535353535,True,,,2.3,r,True,True,True,,f,T_foil,3,,,,,768,6307f3c967020d1202332b77,1 (1332).jpg,0.0-7.0-10.0-0.9,0,True,True,1,False,False,False,False,True,True,True,3,3,4,8,0,,,1,,,,1,f,,962,68177c12b166747e3416c165,images/1 (1332).jpg,Fnn+1,Fnn,,0,0,0,6814acf7a2b0960317ac048d,6307f3c967020d1202332b77,,,initialTest_response,10,10,13,355,670726,,11.19,2025-05-04 15:25:22.473000+00:00,212,image-keyboard-response,0,1,1,"tested only, in next trial",,,,1366
6307f3c967020d1202332b77,2hZWPophffNLKL3VZHqv,Yes,,0.8535353535353535,False,,,2.3,r,,,,,,T_target,3,,,,,768,6307f3c967020d1202332b77,1 (2246).jpg,0.0-11.0-2.0-0.23,0,True,True,1,,True,True,False,True,True,False,7,7,0,10,0,,,1,,,,,,,,68177c12b166747e3416c165,images/1 (2246).jpg,B,B,,24,24,0,6814acf7a2b0960317ac048d,6307f3c967020d1202332b77,,,initial_study,21,21,0,466,1189641,,19.83,2025-05-04 15:25:22.473000+00:00,486,image-keyboard-response,1,1,0,"current target, not in next trial",,,,1366
6307f3c967020d1202332b77,2jJg0SrD3QSbwOJsKKzM,Yes,0.8971428571428571,0.8535353535353535,,,,2.3,r,True,,,,f,F,3,,,,,768,6307f3c967020d1202332b77,1 (1252).jpg,0.0-19.0-1.0-0.18,0,True,,1,False,,False,False,,False,False,,0,0,4,3,,,1,,,,1,f,,1018,68177c12b166747e3416c165,images/1 (1252).jpg,,FF,,,0,0,6814acf7a2b0960317ac048d,6307f3c967020d1202332b77,,,finalTest,,0,0,175,2012281,,33.54,2025-05-04 15:25:32.154000+00:00,940,image-keyboard-response,,,,final Foil,,,,1366
6307f3c967020d1202332b77,2nTUa8wErMGGlSS02Tq0,Yes,,0.8535353535353535,False,,,2.3,r,,,,,,T_target,3,,,,,768,6307f3c967020d1202332b77,1 (1898).jpg,0.0-5.0-2.0-0.23,0,True,True,1,,True,True,False,True,True,False,1,1,0,7,0,,,1,,,,,,,,68177c12b166747e3416c165,images/1 (1898).jpg,B,B,,24,24,0,6814acf7a2b0960317ac048d,6307f3c967020d1202332b77,,,initial_study,20,20,0,317,273027,,4.56,2025-05-04 15:25:22.473000+00:00,30,image-keyboard-response,1,1,0,"current target, not in next trial",,,,1366
6307f3c967020d1202332b77,36bbybobUNAH4jE4pNha,Yes,0.8874458874458875,0.8535353535353535,,,,2.3,r,False,,,,f,F,3,,,,,768,6307f3c967020d1202332b77,1 (996).jpg,0.0-20.0-1.0-0.26,0,True,,1,False,,False,False,,False,False,,0,0,5,10,,,1,,,,0,j,,1222,68177c12b166747e3416c165,images/1 (996).jpg,,FF,,,0,0,6814acf7a2b0960317ac048d,6307f3c967020d1202332b77,,,finalTest,,0,0,231,2084200,,34.74,2025-05-04 15:25:32.154000+00:00,996,image-keyboard-response,,,,final Foil,,,,1366
6307f3c967020d1202332b77,3C5itPf3zf4Bbr0Xucdr,Yes,0.8907284768211918,0.8535353535353535,,,,2.3,r,True,,,,j,T_target,3,,,,,768,6307f3c967020d1202332b77,1 (2300).jpg,0.0-22.0-1.0-0.1,0,True,,1,True,,True,False,,True,False,,4,0,7,0,,,,,,,1,j,,1121,68177c12b166747e3416c165,images/1 (2300).jpg,,B,,,10,0,6814acf7a2b0960317ac048d,6307f3c967020d1202332b77,,,finalTest,,1,0,302,2177551,,36.30,2025-05-04 15:25:41.018000+00:00,1067,image-keyboard-response,,,,"current target, not in next trial",,,,1366
6307f3c967020d1202332b77,3NNIJwZ2nWnmtqbTIfCR,Yes,,0.8535353535353535,False,,,2.3,r,,,,,,T_target,3,,,,,768,6307f3c967020d1202332b77,1 (2251).jpg,0.0-10.0-2.0-0.26,0,True,True,1,,True,True,False,True,True,False,6,6,0,7,0,,,1,,,,,,,,68177c12b166747e3416c165,images/1 (2251).jpg,B,B,,27,27,0,6814acf7a2b0960317ac048d,6307f3c967020d1202332b77,,,initial_study,7,7,0,315,1047339,,17.46,2025-05-04 15:25:22.473000+00:00,413,image-keyboard-response,1,1,0,"current target, not in next trial",,,,1366
6307f3c967020d1202332b77,3Nq7cq2KQMQS63cnZR1A,Yes,,0.8535353535353535,False,,,2.3,r,,,,,,T_target,3,,,,,768,6307f3c967020d1202332b77,1 (498).jpg,0.0-7.0-2.0-0.1,0,False,True,1,,True,True,False,True,True,False,3,3,0,,0,,,1,,,,,,,,68177c12b166747e3416c165,images/1 (498).jpg,B,B,,2,2,0,6814acf7a2b0960317ac048d,6307f3c967020d1202332b77,,,initial_study,3,3,0,0,561016,,9.36,2025-05-04 15:25:22.473000+00:00,160,image-keyboard-response,1,1,0,"current target, not in next trial",,,,1366
6307f3c967020d1202332b77,3Q6cxu7Qei3MbNewa0xY,Yes,,0.8535353535353535,True,,,2.3,r,,,,,,T_target,3,,,,,768,6307f3c967020d1202332b77,1 (363).jpg,0.0-5.0-2.0-0.11,0,True,True,1,,True,True,False,True,True,True,1,1,2,9,0,,,1,,,,,,,,68177c12b166747e3416c165,images/1 (363).jpg,Dn+1,Dn,,12,12,0,6814acf7a2b0960317ac048d,6307f3c967020d1202332b77,,,initial_study,28,28,3,414,247614,,4.13,2025-05-04 15:25:22.473000+00:00,18,image-keyboard-response,1,1,1,"current target, in next trial",,,,1366
6307f3c967020d1202332b77,3QTF3hYB4SpsFmZfR113,Yes,0.8959537572254336,0.8535353535353535,,,,2.3,r,True,,,,j,T_target,3,,,,,768,6307f3c967020d1202332b77,1 (1408).jpg,0.0-19.0-1.0-0.16,0,True,,1,True,,True,False,,True,False,,6,0,4,0,,,,,,,1,j,,997,68177c12b166747e3416c165,images/1 (1408).jpg,,B,,,24,0,6814acf7a2b0960317ac048d,6307f3c967020d1202332b77,,,finalTest,,19,0,173,2010009,,33.51,2025-05-04 15:25:32.154000+00:00,938,image-keyboard-response,,,,"current target, not in next trial",,,,1366
6307f3c967020d1202332b77,3R56vMzouQ2GScNaaxSZ,Yes,1,0.8535353535353535,False,,,2.3,r,True,True,,,j,T_target,3,,,,,768,6307f3c967020d1202332b77,1 (400).jpg,0.0-9.0-10.0-0.8,0,True,True,1,False,True,True,False,True,True,False,5,5,False,,0,,,1,,,,1,j,,1193,68177c12b166747e3416c165,images/1 (400).jpg,B,B,,10,10,0,6814acf7a2b0960317ac048d,6307f3c967020d1202332b77,,,initialTest_response,9,9,0,130,954860,,15.92,2025-05-04 15:25:22.473000+00:00,363,image-keyboard-response,1,1,0,"current target, not in next trial",,,,1366
6307f3c967020d1202332b77,3VgeDTYqmRR6N12SKzur,Yes,,0.8535353535353535,False,,,2.3,r,,,,,,T_target,3,,,,,768,6307f3c967020d1202332b77,1 (1675).jpg,0.0-6.0-2.0-0.10,0,False,True,1,,True,True,False,True,True,False,2,2,0,,0,,,1,,,,,,,,68177c12b166747e3416c165,images/1 (1675).jpg,B,B,,11,11,0,6814acf7a2b0960317ac048d,6307f3c967020d1202332b77,,,initial_study,5,5,0,0,432249,,7.21,2025-05-04 15:25:22.473000+00:00,93,image-keyboard-response,1,1,0,"current target, not in next trial",,,,1366
6307f3c967020d1202332b77,3Ws5l8UQLuY3sJalI5Ki,Yes,,0.8535353535353535,,,,2.3,r,,,,,,,3,,,,,768,6307f3c967020d1202332b77,,0.0-9.0-1.0-0.0,0,,,1,,,,,,,,,,,,,,,,,,,,,,,68177c12b166747e3416c165,"<div style=""font-size:60px;"">+</div>",,,,,,,6814acf7a2b0960317ac048d,6307f3c967020d1202332b77,,,fixation,,,,,842286,,14.05,2025-05-04 15:25:22.473000+00:00,310,html-keyboard-response,,,,,,,,1366
6307f3c967020d1202332b77,3X7GYb4NkCCNOuLor3JP,Yes,,0.8535353535353535,False,,,2.3,r,,,,,,T_nontarget,3,,,,,768,6307f3c967020d1202332b77,1 (2350).jpg,0.0-13.0-2.0-0.10,0,True,True,1,,True,True,False,False,False,False,9,9,0,4,0,,,1,,,,,,,,68177c12b166747e3416c165,images/1 (2350).jpg,A,A,,11,11,0,6814acf7a2b0960317ac048d,6307f3c967020d1202332b77,,,initial_study,0,0,0,164,1467877,,24.47,2025-05-04 15:25:32.154000+00:00,625,image-keyboard-response,1,0,0,"studied only, not in trial",,,,1366
6307f3c967020d1202332b77,3Y5HU9ZGXK5V7N39nwPV,Yes,,0.8535353535353535,False,,,2.3,r,,,,,,T_target,3,,,,,768,6307f3c967020d1202332b77,1 (971).jpg,0.0-6.0-2.0-0.5,0,True,True,1,,True,True,False,True,True,False,2,2,0,9,0,,,1,,,,,,,,68177c12b166747e3416c165,images/1 (971).jpg,B,B,,6,6,0,6814acf7a2b0960317ac048d,6307f3c967020d1202332b77,,,initial_study,1,1,0,429,421665,,7.03,2025-05-04 15:25:22.473000+00:00,88,image-keyboard-response,1,1,0,"current target, not in next trial",,,,1366
6307f3c967020d1202332b77,3aveJhclhQToTTnJHoES,Yes,0.9024390243902439,0.8535353535353535,,,,2.3,r,False,,,,j,T_nontarget,3,,,,,768,6307f3c967020d1202332b77,1 (1265).jpg,0.0-18.0-1.0-0.14,0,True,,1,True,,True,False,,False,False,,10,0,3,0,,,,,,,0,f,,783,68177c12b166747e3416c165,images/1 (1265).jpg,,A,,,18,0,6814acf7a2b0960317ac048d,6307f3c967020d1202332b77,,,finalTest,,0,0,123,1952077,,32.54,2025-05-04 15:25:32.154000+00:00,888,image-keyboard-response,,,,"studied only, not in trial",,,,1366
6307f3c967020d1202332b77,3e4mvoxW9Sh5xbr9482Y,Yes,0.8905472636815921,0.8535353535353535,,,,2.3,r,True,True,True,,j,T_foil,3,,,,,768,6307f3c967020d1202332b77,1 (2280).jpg,0.0-19.0-1.0-0.44,0,True,,1,True,,False,False,,True,True,,3,4,4,3,,,,,,,1,j,,951,68177c12b166747e3416c165,images/1 (2280).jpg,,Fnn,,,0,0,6814acf7a2b0960317ac048d,6307f3c967020d1202332b77,,,finalTest,,24,20,201,2044962,,34.09,2025-05-04 15:25:32.154000+00:00,966,image-keyboard-response,,,,"tested only, in next trial",,,,1366
6307f3c967020d1202332b77,3eMKxontBpPzgUZothgv,Yes,0.8774193548387096,0.8535353535353535,,,,2.3,r,True,,,,j,T_target,3,,,,,768,6307f3c967020d1202332b77,1 (2354).jpg,0.0-25.0-1.0-0.20,0,True,,1,True,,True,False,,True,False,,1,0,10,0,,,,,,,1,j,,1065,68177c12b166747e3416c165,images/1 (2354).jpg,,B,,,7,0,6814acf7a2b0960317ac048d,6307f3c967020d1202332b77,,,finalTest,,30,0,465,2411031,,40.19,2025-05-04 15:25:41.018000+00:00,1230,image-keyboard-response,,,,"current target, not in next trial",,,,1366
6307f3c967020d1202332b77,3gsfj9iuyQXugSPU3eDy,Yes,,0.8535353535353535,,,,2.3,r,,,,,,,3,,,,,768,6307f3c967020d1202332b77,,0.0-13.0-4.0-0.0,0,,,1,,,,,,,,,,,,,,,,,,,,,,,68177c12b166747e3416c165,"<div style=""font-size:60px;"">+</div>",,,,,,,6814acf7a2b0960317ac048d,6307f3c967020d1202332b77,,,fixation,,,,,1511393,,25.20,2025-05-04 15:25:32.154000+00:00,646,html-keyboard-response,,,,,,,,1366
6307f3c967020d1202332b77,3ijMJK2fTWQkPgPGzSeB,Yes,0,0.8535353535353535,True,,,2.3,r,False,False,True,,f,T_foil,3,,,,,768,6307f3c967020d1202332b77,1 (2010).jpg,0.0-5.0-10.0-0.0,0,False,True,1,False,False,False,False,True,True,True,1,1,2,,0,,,1,,,,0,j,,2472,68177c12b166747e3416c165,images/1 (2010).jpg,Fnn+1,Fnn,,0,0,0,6814acf7a2b0960317ac048d,6307f3c967020d1202332b77,,,initialTest_response,1,1,7,0,327212,,5.46,2025-05-04 15:25:22.473000+00:00,51,image-keyboard-response,0,1,1,"tested only, in next trial",,,,1366
6307f3c967020d1202332b77,3kpbVQuKg8cTfplzxL1R,Yes,1,0.8535353535353535,,,,2.3,r,True,,,,f,F,3,,,,,768,6307f3c967020d1202332b77,1 (1713).jpg,0.0-16.0-1.0-0.1,0,True,,1,False,,False,False,,False,False,,0,0,1,3,,,1,,,,1,f,,1071,68177c12b166747e3416c165,images/1 (1713).jpg,,FF,,,0,0,6814acf7a2b0960317ac048d,6307f3c967020d1202332b77,,,finalTest,,0,0,2,1817064,,30.29,2025-05-04 15:25:32.154000+00:00,767,image-keyboard-response,,,,final Foil,,,,1366
6307f3c967020d1202332b77,3mZ0bJiYVldjSEWOQmWF,Yes,0.7894736842105263,0.8535353535353535,True,,,2.3,r,True,True,True,,f,T_foil,3,,,,,768,6307f3c967020d1202332b77,1 (1892).jpg,0.0-13.0-10.0-0.18,0,True,False,1,False,False,True,False,True,True,True,9,8,9,,0,,,2,,,,1,f,,1134,68177c12b166747e3416c165,images/1 (1892).jpg,Dn,Dn,,0,22,0,6814acf7a2b0960317ac048d,6307f3c967020d1202332b77,,,initialTest_response,19,22,19,203,1571141,,26.19,2025-05-04 15:25:32.154000+00:00,677,image-keyboard-response,1,1,1,"current target, in next trial, from last trial",,,,1366
6307f3c967020d1202332b77,3oV04T1VzIufvoGxQcuV,Yes,,0.8535353535353535,,,,2.3,r,,,,,,,3,,,,,768,6307f3c967020d1202332b77,,0.0-14.0-5.0-0.1,0,,,1,,,,,,,,10,,,,,,,,,2,,,,,,68177c12b166747e3416c165,7,,,7,,,,6814acf7a2b0960317ac048d,6307f3c967020d1202332b77,,52,digitPresentation,,,,,1660144,,27.68,2025-05-04 15:25:32.154000+00:00,724,html-keyboard-response,,,,,,,,1366
6307f3c967020d1202332b77,3qfwNUxLORxmjNVFqpEY,Yes,,0.8535353535353535,False,,,2.3,r,,,,,,T_nontarget,3,,,,,768,6307f3c967020d1202332b77,1 (2175).jpg,0.0-6.0-2.0-0.9,0,False,True,1,,True,True,False,False,False,False,2,2,0,,0,,,1,,,,,,,,68177c12b166747e3416c165,images/1 (2175).jpg,A,A,,10,10,0,6814acf7a2b0960317ac048d,6307f3c967020d1202332b77,,,initial_study,0,0,0,0,430132,,7.18,2025-05-04 15:25:22.473000+00:00,92,image-keyboard-response,1,0,0,"studied only, not in trial",,,,1366
6307f3c967020d1202332b77,3quunJ4jSAykjU3H64Ce,Yes,0.9025974025974026,0.8535353535353535,,,,2.3,r,True,,,,f,F,3,,,,,768,6307f3c967020d1202332b77,1 (1248).jpg,0.0-18.0-1.0-0.45,0,True,,1,False,,False,False,,False,False,,0,0,3,6,,,1,,,,1,f,,942,68177c12b166747e3416c165,images/1 (1248).jpg,,FF,,,0,0,6814acf7a2b0960317ac048d,6307f3c967020d1202332b77,,,finalTest,,0,0,154,1986987,,33.12,2025-05-04 15:25:32.154000+00:00,919,image-keyboard-response,,,,final Foil,,,,1366
6307f3c967020d1202332b77,4098dK6yFUETfpJSlQoh,Yes,0.8846153846153845,0.8535353535353535,,,,2.3,r,True,,,,f,F,3,,,,,768,6307f3c967020d1202332b77,1 (1374).jpg,0.0-21.0-1.0-0.33,0,True,,1,False,,False,False,,False,False,,0,0,6,8,,,1,,,,1,f,,1079,68177c12b166747e3416c165,images/1 (1374).jpg,,FF,,,0,0,6814acf7a2b0960317ac048d,6307f3c967020d1202332b77,,,finalTest,,0,0,286,2156658,,35.95,2025-05-04 15:25:41.018000+00:00,1051,image-keyboard-response,,,,final Foil,,,,1366
6307f3c967020d1202332b77,41CojVo1uJbRsO4GiPNu,Yes,0.8858695652173911,0.8535353535353535,,,,2.3,r,True,,,,f,F,3,,,,,768,6307f3c967020d1202332b77,1 (81).jpg,0.0-23.0-1.0-0.19,0,True,,1,False,,False,False,,False,False,,0,0,8,0,,,1,,,,1,f,,1364,68177c12b166747e3416c165,images/1 (81).jpg,,FF,,,0,0,6814acf7a2b0960317ac048d,6307f3c967020d1202332b77,,,finalTest,,0,0,368,2266808,,37.79,2025-05-04 15:25:41.018000+00:00,1133,image-keyboard-response,,,,final Foil,,,,1366
6307f3c967020d1202332b77,49nwcNTt7uZlJHcRzJyG,Yes,0.8760330578512395,0.8535353535353535,,,,2.3,r,True,,,,j,T_target,3,,,,,768,6307f3c967020d1202332b77,1 (2208).JPG,0.0-25.0-1.0-0.39,0,True,,1,True,,True,False,,True,False,,2,0,10,0,,,,,,,1,j,,1521,68177c12b166747e3416c165,images/1 (2208).JPG,,B,,,7,0,6814acf7a2b0960317ac048d,6307f3c967020d1202332b77,,,finalTest,,29,0,484,2437371,,40.63,2025-05-04 15:25:41.018000+00:00,1249,image-keyboard-response,,,,"current target, not in next trial",,,,1366
6307f3c967020d1202332b77,4BsVvx6cQQZWnldwzm0e,Yes,,0.8535353535353535,,,,2.3,r,,,,,,,3,,,,,768,6307f3c967020d1202332b77,,0.0-9.0-5.0-0.4,0,,,1,,,,,,,,5,,,,,,,,,5,,,,,,68177c12b166747e3416c165,6,,,6,,,,6814acf7a2b0960317ac048d,6307f3c967020d1202332b77,,51,digitPresentation,,,,,923169,,15.39,2025-05-04 15:25:22.473000+00:00,347,html-keyboard-response,,,,,,,,1366
6307f3c967020d1202332b77,4CxvSVisOXSMzPdfXrUU,Yes,,0.8535353535353535,False,,,2.3,r,,,,,,T_target,3,,,,,768,6307f3c967020d1202332b77,1 (573).jpg,0.0-9.0-2.0-0.24,0,False,True,1,,True,True,False,True,True,False,5,5,0,,0,,,1,,,,,,,,68177c12b166747e3416c165,images/1 (573).jpg,B,B,,25,25,0,6814acf7a2b0960317ac048d,6307f3c967020d1202332b77,,,initial_study,7,7,0,0,895187,,14.93,2025-05-04 15:25:22.473000+00:00,335,image-keyboard-response,1,1,0,"current target, not in next trial",,,,1366
6307f3c967020d1202332b77,4E8GWN9rDInM28Le10Cu,Yes,0.875,0.8535353535353535,True,,,2.3,r,False,True,False,,f,T_foil,3,,,,,768,6307f3c967020d1202332b77,1 (1944).jpg,0.0-10.0-10.0-0.7,0,True,False,1,False,False,False,False,True,False,True,6,5,6,,0,,,2,,,,0,j,,1309,68177c12b166747e3416c165,images/1 (1944).jpg,Fnn,Fnn,,0,0,0,6814acf7a2b0960317ac048d,6307f3c967020d1202332b77,,,initialTest_response,8,0,8,21,1101678,,18.37,2025-05-04 15:25:22.473000+00:00,438,image-keyboard-response,0,1,1,"tested only, in next trial, from last trial",,,,1366
6307f3c967020d1202332b77,4EySDuPqry5amnUazRqF,Yes,,0.8535353535353535,False,,,2.3,r,,,,,,T_nontarget,3,,,,,768,6307f3c967020d1202332b77,1 (715).jpg,0.0-14.0-2.0-0.4,0,True,True,1,,True,True,False,False,False,False,10,10,0,8,0,,,1,,,,,,,,68177c12b166747e3416c165,images/1 (715).jpg,A,A,,5,5,0,6814acf7a2b0960317ac048d,6307f3c967020d1202332b77,,,initial_study,0,0,0,366,1598879,,26.65,2025-05-04 15:25:32.154000+00:00,695,image-keyboard-response,1,0,0,"studied only, not in trial",,,,1366
6307f3c967020d1202332b77,4FUS0wKYCNXyj4dwt563,Yes,0.7619047619047619,0.8535353535353535,True,,,2.3,r,False,True,False,,f,T_foil,3,,,,,768,6307f3c967020d1202332b77,1 (2114).jpg,0.0-9.0-10.0-0.20,0,False,False,1,False,False,False,False,True,False,True,5,4,5,,0,,,2,,,,0,j,,1395,68177c12b166747e3416c165,images/1 (2114).jpg,Fnn,Fnn,,0,0,0,6814acf7a2b0960317ac048d,6307f3c967020d1202332b77,,,initialTest_response,21,0,21,0,970230,,16.18,2025-05-04 15:25:22.473000+00:00,375,image-keyboard-response,0,1,1,"tested only, in next trial, from last trial",,,,1366
6307f3c967020d1202332b77,4FY7QEcjQFhiZmW4L3cJ,Yes,,0.8535353535353535,,,,2.3,r,,,,,,,3,,,,,768,6307f3c967020d1202332b77,,0.0-6.0-5.0-0.0,0,,,1,,,,,,,,2,,,,,,,,,1,,,,,,68177c12b166747e3416c165,8,,,8,,,,6814acf7a2b0960317ac048d,6307f3c967020d1202332b77,,58,digitPresentation,,,,,477780,,7.97,2025-05-04 15:25:22.473000+00:00,115,html-keyboard-response,,,,,,,,1366
6307f3c967020d1202332b77,4JftASFLDlExlycos43z,Yes,0.7333333333333333,0.8535353535353535,False,,,2.3,r,True,True,,,j,T_target,3,,,,,768,6307f3c967020d1202332b77,1 (1845).jpg,0.0-5.0-10.0-0.14,0,False,True,1,False,True,True,False,True,True,False,1,1,False,,0,,,1,,,,1,j,,962,68177c12b166747e3416c165,images/1 (1845).jpg,B,B,,4,4,0,6814acf7a2b0960317ac048d,6307f3c967020d1202332b77,,,initialTest_response,15,15,0,0,353589,,5.90,2025-05-04 15:25:22.473000+00:00,65,image-keyboard-response,1,1,0,"current target, not in next trial",,,,1366
6307f3c967020d1202332b77,4Mqa3ZlNc7kdk02hoSCn,Yes,,0.8535353535353535,False,,,2.3,r,,,,,,T_target,3,,,,,768,6307f3c967020d1202332b77,1 (2388).jpg,0.0-6.0-2.0-0.4,0,False,True,1,,True,True,False,True,True,False,2,2,0,,0,,,1,,,,,,,,68177c12b166747e3416c165,images/1 (2388).jpg,B,B,,5,5,0,6814acf7a2b0960317ac048d,6307f3c967020d1202332b77,,,initial_study,4,4,0,0,419549,,7.00,2025-05-04 15:25:22.473000+00:00,87,image-keyboard-response,1,1,0,"current target, not in next trial",,,,1366
6307f3c967020d1202332b77,4NIcJBkndolwJHs351HW,Yes,0.9,0.8535353535353535,True,,,2.3,r,True,True,True,,f,T_foil,3,,,,,768,6307f3c967020d1202332b77,1 (1188).jpg,0.0-12.0-10.0-0.29,0,False,False,1,False,False,False,False,True,False,True,8,7,8,,0,,,2,,,,1,f,,1306,68177c12b166747e3416c165,images/1 (1188).jpg,Fnn,Fnn,,0,0,0,6814acf7a2b0960317ac048d,6307f3c967020d1202332b77,,,initialTest_response,30,0,30,0,1440629,,24.02,2025-05-04 15:25:32.154000+00:00,612,image-keyboard-response,0,1,1,"tested only, in next trial, from last trial",,,,1366
6307f3c967020d1202332b77,4Oc9wrGW768M2aY7Hytj,Yes,1,0.8535353535353535,True,,,2.3,r,True,,True,,f,T_foil,3,,,,,768,6307f3c967020d1202332b77,1 (1187).jpg,0.0-11.0-10.0-0.3,0,True,False,1,False,False,True,False,True,False,True,7,6,7,,0,,,2,,,,1,f,,1609,68177c12b166747e3416c165,images/1 (1187).jpg,Cn,Cn,,0,13,0,6814acf7a2b0960317ac048d,6307f3c967020d1202332b77,,,initialTest_response,4,0,4,483,1246829,,20.79,2025-05-04 15:25:32.154000+00:00,510,image-keyboard-response,1,0,1,"studied only, in next trial, from last trial",,,,1366
6307f3c967020d1202332b77,4VSHLBIkGvb4aXi37GaJ,Yes,0.7916666666666666,0.8535353535353535,False,,,2.3,r,True,True,,,f,T_foil,3,,,,,768,6307f3c967020d1202332b77,1 (1380).jpg,0.0-5.0-10.0-0.23,0,True,True,1,False,False,False,False,True,True,False,1,1,False,2,0,,,1,,,,1,f,,887,68177c12b166747e3416c165,images/1 (1380).jpg,Fn+1,Fn,,0,0,0,6814acf7a2b0960317ac048d,6307f3c967020d1202332b77,,,initialTest_response,24,24,0,101,362931,,6.06,2025-05-04 15:25:22.473000+00:00,74,image-keyboard-response,0,1,0,"tested only, not in next trial",,,,1366
6307f3c967020d1202332b77,4WVithAVW6YsrmrkyYI7,Yes,0.8847184986595172,0.8535353535353535,,,,2.3,r,False,,,,j,T_foil,3,,,,,768,6307f3c967020d1202332b77,1 (1267).jpg,0.0-23.0-1.0-0.24,0,True,,1,True,,False,False,,True,False,,7,False,8,7,,,,,,,0,f,,1399,68177c12b166747e3416c165,images/1 (1267).jpg,,Fn,,,0,0,6814acf7a2b0960317ac048d,6307f3c967020d1202332b77,,,finalTest,,24,0,373,2273646,,37.90,2025-05-04 15:25:41.018000+00:00,1138,image-keyboard-response,,,,"tested only, not in next trial",,,,1366
6307f3c967020d1202332b77,4addf8O5m4FTLZmar2rN,Yes,0.9375,0.8535353535353535,True,,,2.3,r,True,True,True,,f,T_foil,3,,,,,768,6307f3c967020d1202332b77,1 (320).jpg,0.0-8.0-10.0-0.15,0,False,False,1,False,False,False,False,True,False,True,4,3,4,,0,,,2,,,,1,f,,1056,68177c12b166747e3416c165,images/1 (320).jpg,Fnn,Fnn,,0,0,0,6814acf7a2b0960317ac048d,6307f3c967020d1202332b77,,,initialTest_response,16,0,16,0,821319,,13.70,2025-05-04 15:25:22.473000+00:00,294,image-keyboard-response,0,1,1,"tested only, in next trial, from last trial",,,,1366
6307f3c967020d1202332b77,4ap27RuHYoh8WLLZjNwT,Yes,1,0.8535353535353535,True,,,2.3,r,True,True,True,,f,T_foil,3,,,,,768,6307f3c967020d1202332b77,1 (1749).jpg,0.0-13.0-10.0-0.5,0,True,False,1,False,False,True,False,True,True,True,9,8,9,,0,,,2,,,,1,f,,1111,68177c12b166747e3416c165,images/1 (1749).jpg,Dn,Dn,,0,20,0,6814acf7a2b0960317ac048d,6307f3c967020d1202332b77,,,initialTest_response,6,20,6,492,1553069,,25.89,2025-05-04 15:25:32.154000+00:00,664,image-keyboard-response,1,1,1,"current target, in next trial, from last trial",,,,1366
6307f3c967020d1202332b77,4hTlduyrUgU5UMjMuWGc,Yes,0.8755274261603374,0.8535353535353535,,,,2.3,r,True,,,,f,F,3,,,,,768,6307f3c967020d1202332b77,1 (389).jpg,0.0-25.0-1.0-0.29,0,True,,1,False,,False,False,,False,False,,0,0,10,3,,,1,,,,1,f,,1193,68177c12b166747e3416c165,images/1 (389).jpg,,FF,,,0,0,6814acf7a2b0960317ac048d,6307f3c967020d1202332b77,,,finalTest,,0,0,474,2423258,,40.39,2025-05-04 15:25:41.018000+00:00,1239,image-keyboard-response,,,,final Foil,,,,1366
6307f3c967020d1202332b77,4hz6EkoIiFIhfzEs0drW,Yes,0.6363636363636364,0.8535353535353535,False,,,2.3,r,True,True,,,f,T_foil,3,,,,,768,6307f3c967020d1202332b77,1 (881).jpg,0.0-5.0-10.0-0.10,0,False,True,1,False,False,False,False,True,True,False,1,1,False,,0,,,1,,,,1,f,,1046,68177c12b166747e3416c165,images/1 (881).jpg,Fn+1,Fn,,0,0,0,6814acf7a2b0960317ac048d,6307f3c967020d1202332b77,,,initialTest_response,11,11,0,0,349189,,5.83,2025-05-04 15:25:22.473000+00:00,61,image-keyboard-response,0,1,0,"tested only, not in next trial",,,,1366
6307f3c967020d1202332b77,4jf3ry6UOnBXSMHGQOpW,Yes,,0.8535353535353535,False,,,2.3,r,,,,,,T_target,3,,,,,768,6307f3c967020d1202332b77,1 (1243).jpg,0.0-11.0-2.0-0.26,0,True,True,1,,True,True,False,True,True,False,7,7,0,9,0,,,1,,,,,,,,68177c12b166747e3416c165,images/1 (1243).jpg,B,B,,27,27,0,6814acf7a2b0960317ac048d,6307f3c967020d1202332b77,,,initial_study,16,16,0,415,1195991,,19.94,2025-05-04 15:25:22.473000+00:00,489,image-keyboard-response,1,1,0,"current target, not in next trial",,,,1366
6307f3c967020d1202332b77,4tRbFhp1vHuyTa7iWOfe,Yes,0.8883495145631068,0.8535353535353535,,,,2.3,r,True,,,,f,F,3,,,,,768,6307f3c967020d1202332b77,1 (1885).jpg,0.0-20.0-1.0-0.1,0,True,,1,False,,False,False,,False,False,,0,0,5,7,,,1,,,,1,f,,1610,68177c12b166747e3416c165,images/1 (1885).jpg,,FF,,,0,0,6814acf7a2b0960317ac048d,6307f3c967020d1202332b77,,,finalTest,,0,0,206,2051871,,34.20,2025-05-04 15:25:32.154000+00:00,971,image-keyboard-response,,,,final Foil,,,,1366
6307f3c967020d1202332b77,4thFAc8Fa50arCHEMJr2,Yes,0.8861788617886177,0.8535353535353535,,,,2.3,r,True,,,,j,T_target,3,,,,,768,6307f3c967020d1202332b77,1 (1172).jpg,0.0-23.0-1.0-0.20,0,True,,1,True,,True,False,,True,False,,9,0,8,0,,,,,,,1,j,,1115,68177c12b166747e3416c165,images/1 (1172).jpg,,B,,,16,0,6814acf7a2b0960317ac048d,6307f3c967020d1202332b77,,,finalTest,,14,0,369,2268031,,37.81,2025-05-04 15:25:41.018000+00:00,1134,image-keyboard-response,,,,"current target, not in next trial",,,,1366
6307f3c967020d1202332b77,4vcCilYtWJNCQDUvZ1SZ,Yes,,0.8535353535353535,False,,,2.3,r,,,,,,T_nontarget,3,,,,,768,6307f3c967020d1202332b77,1 (1509).jpg,0.0-6.0-2.0-0.17,0,False,True,1,,True,True,False,False,False,False,2,2,0,,0,,,1,,,,,,,,68177c12b166747e3416c165,images/1 (1509).jpg,A,A,,18,18,0,6814acf7a2b0960317ac048d,6307f3c967020d1202332b77,,,initial_study,0,0,0,0,447082,,7.46,2025-05-04 15:25:22.473000+00:00,100,image-keyboard-response,1,0,0,"studied only, not in trial",,,,1366
6307f3c967020d1202332b77,5197YvurbBzk1jkesjW6,Yes,0.9333333333333333,0.8535353535353535,True,,,2.3,r,True,True,True,,f,T_foil,3,,,,,768,6307f3c967020d1202332b77,1 (1551).jpg,0.0-8.0-10.0-0.14,0,True,True,1,False,False,False,False,True,True,True,4,4,5,8,0,,,1,,,,1,f,,1055,68177c12b166747e3416c165,images/1 (1551).jpg,Fnn+1,Fnn,,0,0,0,6814acf7a2b0960317ac048d,6307f3c967020d1202332b77,,,initialTest_response,15,15,13,394,820151,,13.68,2025-05-04 15:25:22.473000+00:00,293,image-keyboard-response,0,1,1,"tested only, in next trial",,,,1366
6307f3c967020d1202332b77,51tip15K1BiGNMcTwtAj,Yes,,0.8535353535353535,,,,2.3,r,,,,,,,3,,,,,768,6307f3c967020d1202332b77,,0.0-9.0-5.0-0.6,0,,,1,,,,,,,,5,,,,,,,,,7,,,,,,68177c12b166747e3416c165,5,,,5,,,,6814acf7a2b0960317ac048d,6307f3c967020d1202332b77,,51,digitPresentation,,,,,929236,,15.49,2025-05-04 15:25:22.473000+00:00,349,html-keyboard-response,,,,,,,,1366
6307f3c967020d1202332b77,59rRduk9wGyxlyNBbpeV,Yes,0.8865030674846625,0.8535353535353535,,,,2.3,r,True,,,,f,F,3,,,,,768,6307f3c967020d1202332b77,1 (1033).jpg,0.0-22.0-1.0-0.25,0,True,,1,False,,False,False,,False,False,,0,0,7,5,,,1,,,,1,f,,1043,68177c12b166747e3416c165,images/1 (1033).jpg,,FF,,,0,0,6814acf7a2b0960317ac048d,6307f3c967020d1202332b77,,,finalTest,,0,0,326,2208482,,36.81,2025-05-04 15:25:41.018000+00:00,1091,image-keyboard-response,,,,final Foil,,,,1366
6307f3c967020d1202332b77,5Aq5tyM98yWXPCH6KgAH,Yes,,0.8535353535353535,,,,2.3,r,True,,,49,,,3,,,,,768,6307f3c967020d1202332b77,,0.0-5.0-6.0-0.0-0.0,0,,,1,,,,,,,,,,,,,,,,,,,,{'Q0': '49'},49,5733,68177c12b166747e3416c165,,,,,,,,6814acf7a2b0960317ac048d,6307f3c967020d1202332b77,,,answer_counting,,,,,318988,,5.32,2025-05-04 15:25:22.473000+00:00,47,survey-text,,,,,,,,1366
6307f3c967020d1202332b77,5Bk9x93mRBEMHzbpE7fm,Yes,0.884507042253521,0.8535353535353535,,,,2.3,r,True,True,True,,j,T_foil,3,,,,,768,6307f3c967020d1202332b77,1 (1332).jpg,0.0-23.0-1.0-0.6,0,True,,1,True,,False,False,,True,True,,3,4,8,3,,,,,,,1,j,,1180,68177c12b166747e3416c165,images/1 (1332).jpg,,Fnn,,,0,0,6814acf7a2b0960317ac048d,6307f3c967020d1202332b77,,,finalTest,,10,13,355,2249744,,37.50,2025-05-04 15:25:41.018000+00:00,1120,image-keyboard-response,,,,"tested only, in next trial",,,,1366
6307f3c967020d1202332b77,5KXcYkabuYB2zLu8iK4U,Yes,0.8830083565459609,0.8535353535353535,,,,2.3,r,False,,,,j,T_nontarget,3,,,,,768,6307f3c967020d1202332b77,1 (1293).jpg,0.0-23.0-1.0-0.10,0,True,,1,True,,True,False,,False,False,,7,0,8,0,,,,,,,0,f,,1305,68177c12b166747e3416c165,images/1 (1293).jpg,,A,,,28,0,6814acf7a2b0960317ac048d,6307f3c967020d1202332b77,,,finalTest,,0,0,359,2255038,,37.59,2025-05-04 15:25:41.018000+00:00,1124,image-keyboard-response,,,,"studied only, not in trial",,,,1366
6307f3c967020d1202332b77,5NsTV8nLgqNfcE3R3DLw,Yes,0.8818897637795275,0.8535353535353535,,,,2.3,r,True,True,True,,j,T_target,3,,,,,768,6307f3c967020d1202332b77,1 (2220).jpg,0.0-21.0-1.0-0.1,0,True,,1,True,,True,False,,True,True,,7,8,6,0,,,,,,,1,j,,1105,68177c12b166747e3416c165,images/1 (2220).jpg,,Dn,,,2,0,6814acf7a2b0960317ac048d,6307f3c967020d1202332b77,,,finalTest,,19,17,254,2114507,,35.25,2025-05-04 15:25:41.018000+00:00,1019,image-keyboard-response,,,,"current target, in next trial",,,,1366
6307f3c967020d1202332b77,5SENQlMnv1Jl5gwCv9MV,Yes,,0.8535353535353535,False,,,2.3,r,,,,,,T_target,3,,,,,768,6307f3c967020d1202332b77,1 (1686).jpg,0.0-13.0-2.0-0.20,0,True,True,1,,True,True,False,True,True,False,9,9,0,9,0,,,1,,,,,,,,68177c12b166747e3416c165,images/1 (1686).jpg,B,B,,21,21,0,6814acf7a2b0960317ac048d,6307f3c967020d1202332b77,,,initial_study,30,30,0,413,1489060,,24.82,2025-05-04 15:25:32.154000+00:00,635,image-keyboard-response,1,1,0,"current target, not in next trial",,,,1366
6307f3c967020d1202332b77,5Sg5uZbupI3pkZe7FMTQ,Yes,0.9090909090909091,0.8535353535353535,True,,,2.3,r,False,,False,,f,T_foil,3,,,,,768,6307f3c967020d1202332b77,1 (489).jpg,0.0-9.0-10.0-0.10,0,True,False,1,False,False,True,False,True,False,True,5,4,5,,0,,,2,,,,0,j,,1159,68177c12b166747e3416c165,images/1 (489).jpg,Cn,Cn,,0,6,0,6814acf7a2b0960317ac048d,6307f3c967020d1202332b77,,,initialTest_response,11,0,11,41,957360,,15.96,2025-05-04 15:25:22.473000+00:00,365,image-keyboard-response,1,0,1,"studied only, in next trial, from last trial",,,,1366
6307f3c967020d1202332b77,5VocLsWBnOTUysIFj0gz,Yes,0.7931034482758621,0.8535353535353535,False,,,2.3,r,True,True,,,j,T_target,3,,,,,768,6307f3c967020d1202332b77,1 (1889).jpg,0.0-10.0-10.0-0.28,0,True,True,1,False,True,True,False,True,True,False,6,6,False,,0,,,1,,,,1,j,,1303,68177c12b166747e3416c165,images/1 (1889).jpg,B,B,,22,22,0,6814acf7a2b0960317ac048d,6307f3c967020d1202332b77,,,initialTest_response,29,29,0,174,1131470,,18.86,2025-05-04 15:25:22.473000+00:00,459,image-keyboard-response,1,1,0,"current target, not in next trial",,,,1366
6307f3c967020d1202332b77,5YUGdgda7aUqKCzMR3v6,Yes,0.8805309734513274,0.8535353535353535,,,,2.3,r,True,,,,f,F,3,,,,,768,6307f3c967020d1202332b77,1 (139).jpg,0.0-25.0-1.0-0.7,0,True,,1,False,,False,False,,False,False,,0,0,10,1,,,1,,,,1,f,,1285,68177c12b166747e3416c165,images/1 (139).jpg,,FF,,,0,0,6814acf7a2b0960317ac048d,6307f3c967020d1202332b77,,,finalTest,,0,0,452,2391217,,39.86,2025-05-04 15:25:41.018000+00:00,1217,image-keyboard-response,,,,final Foil,,,,1366
6307f3c967020d1202332b77,5cM4s6dyjTN1A4ygn2BM,Yes,0.9285714285714286,0.8535353535353535,False,,,2.3,r,True,True,,,j,T_target,3,,,,,768,6307f3c967020d1202332b77,1 (1327).jpg,0.0-8.0-10.0-0.13,0,True,True,1,False,True,True,False,True,True,False,4,4,False,,0,,,1,,,,1,j,,904,68177c12b166747e3416c165,images/1 (1327).jpg,B,B,,7,7,0,6814acf7a2b0960317ac048d,6307f3c967020d1202332b77,,,initialTest_response,14,14,0,265,818985,,13.66,2025-05-04 15:25:22.473000+00:00,292,image-keyboard-response,1,1,0,"current target, not in next trial",,,,1366
6307f3c967020d1202332b77,5j3P4mnzgKSL8czIEwsc,Yes,0.9038461538461539,0.8535353535353535,,,,2.3,r,True,,,,f,F,3,,,,,768,6307f3c967020d1202332b77,1 (1629).jpg,0.0-18.0-1.0-0.47,0,True,,1,False,,False,False,,False,False,,0,0,3,10,,,1,,,,1,f,,948,68177c12b166747e3416c165,images/1 (1629).jpg,,FF,,,0,0,6814acf7a2b0960317ac048d,6307f3c967020d1202332b77,,,finalTest,,0,0,156,1989010,,33.16,2025-05-04 15:25:32.154000+00:00,921,image-keyboard-response,,,,final Foil,,,,1366
6307f3c967020d1202332b77,5ogjFFW03cgF5dibTax3,Yes,0.8831775700934578,0.8535353535353535,,,,2.3,r,True,,,,j,T_target,3,,,,,768,6307f3c967020d1202332b77,1 (1396).jpg,0.0-24.0-1.0-0.31,0,True,,1,True,,True,False,,True,False,,1,0,9,0,,,,,,,1,j,,872,68177c12b166747e3416c165,images/1 (1396).jpg,,B,,,13,0,6814acf7a2b0960317ac048d,6307f3c967020d1202332b77,,,finalTest,,3,0,428,2351770,,39.20,2025-05-04 15:25:41.018000+00:00,1193,image-keyboard-response,,,,"current target, not in next trial",,,,1366
6307f3c967020d1202332b77,5qms8zdR8EeZREfp9edJ,Yes,0.8903508771929824,0.8535353535353535,,,,2.3,r,True,,,,f,F,3,,,,,768,6307f3c967020d1202332b77,1 (359).jpg,0.0-20.0-1.0-0.23,0,True,,1,False,,False,False,,False,False,,0,0,5,4,,,1,,,,1,f,,1128,68177c12b166747e3416c165,images/1 (359).jpg,,FF,,,0,0,6814acf7a2b0960317ac048d,6307f3c967020d1202332b77,,,finalTest,,0,0,228,2080458,,34.68,2025-05-04 15:25:32.154000+00:00,993,image-keyboard-response,,,,final Foil,,,,1366
6307f3c967020d1202332b77,5t0axuX6jJHEZ9gNQvvI,Yes,,0.8535353535353535,,,,2.3,r,,,,,,,3,,,,,768,6307f3c967020d1202332b77,,0.0-10.0-5.0-0.5,0,,,1,,,,,,,,6,,,,,,,,,6,,,,,,68177c12b166747e3416c165,9,,,9,,,,6814acf7a2b0960317ac048d,6307f3c967020d1202332b77,,56,digitPresentation,,,,,1074123,,17.91,2025-05-04 15:25:22.473000+00:00,424,html-keyboard-response,,,,,,,,1366
6307f3c967020d1202332b77,5uchVEi2wbS0UAX13pkq,Yes,0.75,0.8535353535353535,False,,,2.3,r,True,True,,,f,T_foil,3,,,,,768,6307f3c967020d1202332b77,1 (163).jpg,0.0-13.0-10.0-0.27,0,False,True,1,False,False,False,False,True,True,False,9,9,False,,0,,,1,,,,1,f,,1026,68177c12b166747e3416c165,images/1 (163).jpg,Fn+1,Fn,,0,0,0,6814acf7a2b0960317ac048d,6307f3c967020d1202332b77,,,initialTest_response,28,28,0,0,1582566,,26.38,2025-05-04 15:25:32.154000+00:00,686,image-keyboard-response,0,1,0,"tested only, not in next trial",,,,1366
6307f3c967020d1202332b77,5v46p5zt5djixV2xe18x,Yes,,0.8535353535353535,,,,2.3,r,,,,,,,3,,,,,768,6307f3c967020d1202332b77,,0.0-13.0-7.0-0.0,0,,,1,,,,,,,,,,,,,,,,,,,,,,,68177c12b166747e3416c165,<p background:white>CORRECT!</p>,,,,,,,6814acf7a2b0960317ac048d,6307f3c967020d1202332b77,,,promptfeedback,,,,,1541377,,25.70,2025-05-04 15:25:32.154000+00:00,656,html-keyboard-response,,,,,,,,1366
6307f3c967020d1202332b77,6370wAGXlfNo9HIayARq,Yes,0.75,0.8535353535353535,False,,,2.3,r,True,True,,,j,T_target,3,,,,,768,6307f3c967020d1202332b77,1 (486).jpg,0.0-5.0-10.0-0.15,0,True,True,1,False,True,True,False,True,True,False,1,1,False,,0,,,1,,,,1,j,,927,68177c12b166747e3416c165,images/1 (486).jpg,B,B,,16,16,0,6814acf7a2b0960317ac048d,6307f3c967020d1202332b77,,,initialTest_response,16,16,0,68,354637,,5.92,2025-05-04 15:25:22.473000+00:00,66,image-keyboard-response,1,1,0,"current target, not in next trial",,,,1366
6307f3c967020d1202332b77,63lpmIgTYIGnbr961TDq,Yes,0.8825622775800712,0.8535353535353535,,,,2.3,r,True,False,False,,j,T_target,3,,,,,768,6307f3c967020d1202332b77,1 (748).jpg,0.0-21.0-1.0-0.28,0,True,,1,True,,True,False,,True,True,,5,6,6,0,,,,,,,1,j,,1032,68177c12b166747e3416c165,images/1 (748).jpg,,Dn,,,4,0,6814acf7a2b0960317ac048d,6307f3c967020d1202332b77,,,finalTest,,12,11,281,2150395,,35.85,2025-05-04 15:25:41.018000+00:00,1046,image-keyboard-response,,,,"current target, in next trial",,,,1366
6307f3c967020d1202332b77,63qHzk7ZHqCYFPC5nXx9,Yes,0.9090909090909091,0.8535353535353535,True,,,2.3,r,True,True,True,,f,T_foil,3,,,,,768,6307f3c967020d1202332b77,1 (1891).jpg,0.0-11.0-10.0-0.21,0,True,False,1,False,False,True,False,True,True,True,7,6,7,,0,,,2,,,,1,f,,1558,68177c12b166747e3416c165,images/1 (1891).jpg,Dn,Dn,,0,2,0,6814acf7a2b0960317ac048d,6307f3c967020d1202332b77,,,initialTest_response,22,2,22,277,1276478,,21.28,2025-05-04 15:25:32.154000+00:00,528,image-keyboard-response,1,1,1,"current target, in next trial, from last trial",,,,1366
6307f3c967020d1202332b77,68VIWWQD8wbDTKNQcNPO,Yes,0.8965517241379312,0.8535353535353535,,,,2.3,r,True,,,,f,F,3,,,,,768,6307f3c967020d1202332b77,1 (1122).jpg,0.0-16.0-1.0-0.57,0,True,,1,False,,False,False,,False,False,,0,0,1,0,,,1,,,,1,f,,1001,68177c12b166747e3416c165,images/1 (1122).jpg,,FF,,,0,0,6814acf7a2b0960317ac048d,6307f3c967020d1202332b77,,,finalTest,,0,0,58,1885944,,31.44,2025-05-04 15:25:32.154000+00:00,823,image-keyboard-response,,,,final Foil,,,,1366
6307f3c967020d1202332b77,69ZYg3WTWkc92WPxNpb1,Yes,,0.8535353535353535,,,,2.3,r,True,,,51,,,3,,,,,768,6307f3c967020d1202332b77,,0.0-7.0-6.0-0.0-0.0,0,,,1,,,,,,,,,,,,,,,,,,,,{'Q0': '51'},51,3923,68177c12b166747e3416c165,,,,,,,,6814acf7a2b0960317ac048d,6307f3c967020d1202332b77,,,answer_counting,,,,,651766,,10.87,2025-05-04 15:25:22.473000+00:00,199,survey-text,,,,,,,,1366
6307f3c967020d1202332b77,6ANS5lv2mZ3FD07suS7L,Yes,,0.8535353535353535,False,,,2.3,r,,,,,,T_target,3,,,,,768,6307f3c967020d1202332b77,1 (1657).jpg,0.0-10.0-2.0-0.28,0,True,True,1,,True,True,False,True,True,False,6,6,0,7,0,,,1,,,,,,,,68177c12b166747e3416c165,images/1 (1657).jpg,B,B,,29,29,0,6814acf7a2b0960317ac048d,6307f3c967020d1202332b77,,,initial_study,24,24,0,323,1051572,,17.53,2025-05-04 15:25:22.473000+00:00,415,image-keyboard-response,1,1,0,"current target, not in next trial",,,,1366
6307f3c967020d1202332b77,6CdnpLKKtxWVRVkqNNW9,Yes,,0.8535353535353535,False,,,2.3,r,,,,,,T_target,3,,,,,768,6307f3c967020d1202332b77,1 (2208).JPG,0.0-6.0-2.0-0.6,0,True,True,1,,True,True,False,True,True,False,2,2,0,10,0,,,1,,,,,,,,68177c12b166747e3416c165,images/1 (2208).JPG,B,B,,7,7,0,6814acf7a2b0960317ac048d,6307f3c967020d1202332b77,,,initial_study,29,29,0,484,423782,,7.07,2025-05-04 15:25:22.473000+00:00,89,image-keyboard-response,1,1,0,"current target, not in next trial",,,,1366
6307f3c967020d1202332b77,6RjKpBx1FjwiVfrKvlkO,Yes,0.8859315589353612,0.8535353535353535,,,,2.3,r,True,,,,f,F,3,,,,,768,6307f3c967020d1202332b77,1 (115).jpg,0.0-21.0-1.0-0.10,0,True,,1,False,,False,False,,False,False,,0,0,6,6,,,1,,,,1,f,,1138,68177c12b166747e3416c165,images/1 (115).jpg,,FF,,,0,0,6814acf7a2b0960317ac048d,6307f3c967020d1202332b77,,,finalTest,,0,0,263,2125870,,35.44,2025-05-04 15:25:41.018000+00:00,1028,image-keyboard-response,,,,final Foil,,,,1366
6307f3c967020d1202332b77,6X0JTREDrQaGfnCU5oby,Yes,0.8994082840236687,0.8535353535353535,,,,2.3,r,True,,,,f,F,3,,,,,768,6307f3c967020d1202332b77,1 (2035).jpg,0.0-19.0-1.0-0.12,0,True,,1,False,,False,False,,False,False,,0,0,4,6,,,1,,,,1,f,,1137,68177c12b166747e3416c165,images/1 (2035).jpg,,FF,,,0,0,6814acf7a2b0960317ac048d,6307f3c967020d1202332b77,,,finalTest,,0,0,169,2005299,,33.43,2025-05-04 15:25:32.154000+00:00,934,image-keyboard-response,,,,final Foil,,,,1366
6307f3c967020d1202332b77,6YECKq8w1MdBDv85Ruxm,Yes,0.8571428571428571,0.8535353535353535,False,,,2.3,r,True,True,,,j,T_target,3,,,,,768,6307f3c967020d1202332b77,1 (1598).jpg,0.0-9.0-10.0-0.13,0,True,True,1,False,True,True,False,True,True,False,5,5,False,,0,,,1,,,,1,j,,841,68177c12b166747e3416c165,images/1 (1598).jpg,B,B,,17,17,0,6814acf7a2b0960317ac048d,6307f3c967020d1202332b77,,,initialTest_response,14,14,0,324,961258,,16.03,2025-05-04 15:25:22.473000+00:00,368,image-keyboard-response,1,1,0,"current target, not in next trial",,,,1366
6307f3c967020d1202332b77,6aVXWZBuhBKZJ1K9Ay7h,Yes,,0.8535353535353535,,,,2.3,r,,,,,,,3,,,,,768,6307f3c967020d1202332b77,,0.0-12.0-1.0-0.0,0,,,1,,,,,,,,,,,,,,,,,,,,,,,68177c12b166747e3416c165,"<div style=""font-size:60px;"">+</div>",,,,,,,6814acf7a2b0960317ac048d,6307f3c967020d1202332b77,,,fixation,,,,,1294475,,21.58,2025-05-04 15:25:32.154000+00:00,538,html-keyboard-response,,,,,,,,1366
6307f3c967020d1202332b77,6nQuedGwUMRwmZz7qVlJ,Yes,,0.8535353535353535,,,,2.3,r,,,,,,,3,,,,,768,6307f3c967020d1202332b77,,0.0-7.0-4.0-0.0,0,,,1,,,,,,,,,,,,,,,,,,,,,,,68177c12b166747e3416c165,"<div style=""font-size:60px;"">+</div>",,,,,,,6814acf7a2b0960317ac048d,6307f3c967020d1202332b77,,,fixation,,,,,623567,,10.40,2025-05-04 15:25:22.473000+00:00,190,html-keyboard-response,,,,,,,,1366
6307f3c967020d1202332b77,6tWN4GfxPEsdZbGU2tu1,Yes,0.7777777777777778,0.8535353535353535,False,,,2.3,r,True,True,,,f,T_foil,3,,,,,768,6307f3c967020d1202332b77,1 (1290).jpg,0.0-5.0-10.0-0.17,0,True,True,1,False,False,False,False,True,True,False,1,1,False,6,0,,,1,,,,1,f,,942,68177c12b166747e3416c165,images/1 (1290).jpg,Fn+1,Fn,,0,0,0,6814acf7a2b0960317ac048d,6307f3c967020d1202332b77,,,initialTest_response,18,18,0,279,356684,,5.95,2025-05-04 15:25:22.473000+00:00,68,image-keyboard-response,0,1,0,"tested only, not in next trial",,,,1366
6307f3c967020d1202332b77,6tgv3rqq5Fx6cToWsWQ6,Yes,,0.8535353535353535,False,,,2.3,r,,,,,,T_target,3,,,,,768,6307f3c967020d1202332b77,1 (1142).jpg,0.0-11.0-2.0-0.19,0,False,True,1,,True,True,False,True,True,False,7,7,0,,0,,,1,,,,,,,,68177c12b166747e3416c165,images/1 (1142).jpg,B,B,,20,20,0,6814acf7a2b0960317ac048d,6307f3c967020d1202332b77,,,initial_study,29,29,0,0,1181157,,19.69,2025-05-04 15:25:22.473000+00:00,482,image-keyboard-response,1,1,0,"current target, not in next trial",,,,1366
6307f3c967020d1202332b77,6vJkoTVAqMPOBTlBiE2R,Yes,,0.8535353535353535,,,,2.3,r,,,,,,,3,,,,,768,6307f3c967020d1202332b77,,0.0-14.0-5.0-0.2,0,,,1,,,,,,,,10,,,,,,,,,3,,,,,,68177c12b166747e3416c165,5,,,5,,,,6814acf7a2b0960317ac048d,6307f3c967020d1202332b77,,52,digitPresentation,,,,,1663178,,27.73,2025-05-04 15:25:32.154000+00:00,725,html-keyboard-response,,,,,,,,1366
6307f3c967020d1202332b77,6y1j1c0Z7s2wCjm07s6X,Yes,0.8333333333333334,0.8535353535353535,True,,,2.3,r,False,False,False,,j,T_target,3,,,,,768,6307f3c967020d1202332b77,1 (748).jpg,0.0-9.0-10.0-0.11,0,True,True,1,False,True,True,False,True,True,True,5,5,6,,0,,,1,,,,0,f,,1068,68177c12b166747e3416c165,images/1 (748).jpg,Dn+1,Dn,,4,4,0,6814acf7a2b0960317ac048d,6307f3c967020d1202332b77,,,initialTest_response,12,12,11,281,958536,,15.98,2025-05-04 15:25:22.473000+00:00,366,image-keyboard-response,1,1,1,"current target, in next trial",,,,1366
6307f3c967020d1202332b77,70SMVQcqrDccwXjg13eB,Yes,0.9166666666666666,0.8535353535353535,True,,,2.3,r,True,,True,,f,T_foil,3,,,,,768,6307f3c967020d1202332b77,1 (2404).jpg,0.0-8.0-10.0-0.11,0,False,False,1,False,False,True,False,True,False,True,4,3,4,,0,,,2,,,,1,f,,1079,68177c12b166747e3416c165,images/1 (2404).jpg,Cn,Cn,,0,29,0,6814acf7a2b0960317ac048d,6307f3c967020d1202332b77,,,initialTest_response,12,0,12,0,816743,,13.62,2025-05-04 15:25:22.473000+00:00,290,image-keyboard-response,1,0,1,"studied only, in next trial, from last trial",,,,1366
6307f3c967020d1202332b77,73dgnBvdtnIhjjJ82cVY,Yes,0.877995642701525,0.8535353535353535,,,,2.3,r,True,,,,f,F,3,,,,,768,6307f3c967020d1202332b77,1 (614).jpg,0.0-25.0-1.0-0.14,0,True,,1,False,,False,False,,False,False,,0,0,10,8,,,1,,,,1,f,,1387,68177c12b166747e3416c165,images/1 (614).jpg,,FF,,,0,0,6814acf7a2b0960317ac048d,6307f3c967020d1202332b77,,,finalTest,,0,0,459,2401771,,40.04,2025-05-04 15:25:41.018000+00:00,1224,image-keyboard-response,,,,final Foil,,,,1366
6307f3c967020d1202332b77,74TQgzO76yxVnq1oT3nL,Yes,,0.8535353535353535,,,,2.3,r,,,,,,,3,,,,,768,6307f3c967020d1202332b77,,0.0-8.0-5.0-0.3,0,,,1,,,,,,,,4,,,,,,,,,4,,,,,,68177c12b166747e3416c165,6,,,6,,,,6814acf7a2b0960317ac048d,6307f3c967020d1202332b77,,50,digitPresentation,,,,,778935,,12.99,2025-05-04 15:25:22.473000+00:00,270,html-keyboard-response,,,,,,,,1366
6307f3c967020d1202332b77,76g4n2jkziy2hwrG3H6j,Yes,0.8836206896551724,0.8535353535353535,,,,2.3,r,False,,,,j,T_target,3,,,,,768,6307f3c967020d1202332b77,1 (1512).jpg,0.0-20.0-1.0-0.27,0,True,,1,True,,True,False,,True,False,,5,0,5,0,,,,,,,0,f,,1216,68177c12b166747e3416c165,images/1 (1512).jpg,,B,,,9,0,6814acf7a2b0960317ac048d,6307f3c967020d1202332b77,,,finalTest,,27,0,232,2085527,,34.77,2025-05-04 15:25:32.154000+00:00,997,image-keyboard-response,,,,"current target, not in next trial",,,,1366
6307f3c967020d1202332b77,7DQk0gudNFnLqcrj36JQ,Yes,,0.8535353535353535,False,,,2.3,r,,,,,,T_nontarget,3,,,,,768,6307f3c967020d1202332b77,1 (2209).jpg,0.0-7.0-2.0-0.17,0,True,True,1,,True,True,False,False,False,False,3,3,0,1,0,,,1,,,,,,,,68177c12b166747e3416c165,images/1 (2209).jpg,A,A,,18,18,0,6814acf7a2b0960317ac048d,6307f3c967020d1202332b77,,,initial_study,0,0,0,20,594916,,9.92,2025-05-04 15:25:22.473000+00:00,176,image-keyboard-response,1,0,0,"studied only, not in trial",,,,1366
6307f3c967020d1202332b77,7Jp2d42HgIp4ss35vVLA,Yes,0.8744680851063829,0.8535353535353535,,,,2.3,r,True,,,,f,F,3,,,,,768,6307f3c967020d1202332b77,1 (1).jpg,0.0-25.0-1.0-0.25,0,True,,1,False,,False,False,,False,False,,0,0,10,4,,,1,,,,1,f,,979,68177c12b166747e3416c165,images/1 (1).jpg,,FF,,,0,0,6814acf7a2b0960317ac048d,6307f3c967020d1202332b77,,,finalTest,,0,0,470,2418197,,40.31,2025-05-04 15:25:41.018000+00:00,1235,image-keyboard-response,,,,final Foil,,,,1366
6307f3c967020d1202332b77,7UBDqBBANkUPaiGSKLge,Yes,0.6923076923076923,0.8535353535353535,True,,,2.3,r,True,True,True,,j,T_target,3,,,,,768,6307f3c967020d1202332b77,1 (769).jpg,0.0-5.0-10.0-0.12,0,False,True,1,False,True,True,False,True,True,True,1,1,2,,0,,,1,,,,1,j,,903,68177c12b166747e3416c165,images/1 (769).jpg,Dn+1,Dn,,19,19,0,6814acf7a2b0960317ac048d,6307f3c967020d1202332b77,,,initialTest_response,13,13,14,0,351396,,5.86,2025-05-04 15:25:22.473000+00:00,63,image-keyboard-response,1,1,1,"current target, in next trial",,,,1366
6307f3c967020d1202332b77,7YkpUEOECduq01aXCMaG,Yes,,0.8535353535353535,,,,2.3,r,,,,,,,3,,,,,768,6307f3c967020d1202332b77,,0.0-8.0-7.0-0.0,0,,,1,,,,,,,,,,,,,,,,,,,,,,,68177c12b166747e3416c165,<p background:white>CORRECT!</p>,,,,,,,6814acf7a2b0960317ac048d,6307f3c967020d1202332b77,,,promptfeedback,,,,,797302,,13.30,2025-05-04 15:25:22.473000+00:00,276,html-keyboard-response,,,,,,,,1366
6307f3c967020d1202332b77,7Z5JQXuDSxrsrCtieHPs,Yes,,0.8535353535353535,,,,2.3,r,,,,,,,3,,,,,768,6307f3c967020d1202332b77,,0.0-10.0-5.0-0.4,0,,,1,,,,,,,,6,,,,,,,,,5,,,,,,68177c12b166747e3416c165,4,,,4,,,,6814acf7a2b0960317ac048d,6307f3c967020d1202332b77,,56,digitPresentation,,,,,1071104,,17.86,2025-05-04 15:25:22.473000+00:00,423,html-keyboard-response,,,,,,,,1366
6307f3c967020d1202332b77,7d8XBhyyxBb0EaBteFi1,Yes,0.9,0.8535353535353535,False,,,2.3,r,True,True,,,j,T_target,3,,,,,768,6307f3c967020d1202332b77,1 (472).jpg,0.0-11.0-10.0-0.29,0,True,True,1,False,True,True,False,True,True,False,7,7,False,,0,,,1,,,,1,j,,1550,68177c12b166747e3416c165,images/1 (472).jpg,B,B,,9,9,0,6814acf7a2b0960317ac048d,6307f3c967020d1202332b77,,,initialTest_response,30,30,0,147,1289920,,21.51,2025-05-04 15:25:32.154000+00:00,536,image-keyboard-response,1,1,0,"current target, not in next trial",,,,1366
6307f3c967020d1202332b77,7eZfTE9E9HJK8XBaM3eo,Yes,0.8666666666666667,0.8535353535353535,False,,,2.3,r,True,True,,,j,T_target,3,,,,,768,6307f3c967020d1202332b77,1 (1063).jpg,0.0-9.0-10.0-0.14,0,False,True,1,False,True,True,False,True,True,False,5,5,False,,0,,,1,,,,1,j,,994,68177c12b166747e3416c165,images/1 (1063).jpg,B,B,,5,5,0,6814acf7a2b0960317ac048d,6307f3c967020d1202332b77,,,initialTest_response,15,15,0,0,962361,,16.05,2025-05-04 15:25:22.473000+00:00,369,image-keyboard-response,1,1,0,"current target, not in next trial",,,,1366
6307f3c967020d1202332b77,7f0Y6o0FUUvXnxmeYRkn,Yes,,0.8535353535353535,,,,2.3,r,True,,,57,,,3,,,,,768,6307f3c967020d1202332b77,,0.0-12.0-6.0-0.0-0.0,0,,,1,,,,,,,,,,,,,,,,,,,,{'Q0': '57'},57,4120,68177c12b166747e3416c165,,,,,,,,6814acf7a2b0960317ac048d,6307f3c967020d1202332b77,,,answer_counting,,,,,1389505,,23.17,2025-05-04 15:25:32.154000+00:00,579,survey-text,,,,,,,,1366
6307f3c967020d1202332b77,7iZuluiApx0j5lPIzg3W,Yes,0.8825910931174089,0.8535353535353535,,,,2.3,r,True,,,,f,F,3,,,,,768,6307f3c967020d1202332b77,1 (2011).jpg,0.0-20.0-1.0-0.42,0,True,,1,False,,False,False,,False,False,,0,0,5,1,,,1,,,,1,f,,1456,68177c12b166747e3416c165,images/1 (2011).jpg,,FF,,,0,0,6814acf7a2b0960317ac048d,6307f3c967020d1202332b77,,,finalTest,,0,0,247,2106135,,35.11,2025-05-04 15:25:41.018000+00:00,1012,image-keyboard-response,,,,final Foil,,,,1366
6307f3c967020d1202332b77,7rVzOB6hvMH3eITChERw,Yes,,0.8535353535353535,True,,,2.3,r,,,,,,T_target,3,,,,,768,6307f3c967020d1202332b77,1 (2307).jpg,0.0-7.0-2.0-0.13,0,True,True,1,,True,True,False,True,True,True,3,3,4,7,0,,,1,,,,,,,,68177c12b166747e3416c165,images/1 (2307).jpg,Dn+1,Dn,,14,14,0,6814acf7a2b0960317ac048d,6307f3c967020d1202332b77,,,initial_study,8,8,8,340,586433,,9.78,2025-05-04 15:25:22.473000+00:00,172,image-keyboard-response,1,1,1,"current target, in next trial",,,,1366
6307f3c967020d1202332b77,7tzFVnRHxK6otXQqSTTK,Yes,0.8841807909604518,0.8535353535353535,,,,2.3,r,True,,,,f,F,3,,,,,768,6307f3c967020d1202332b77,1 (1201).jpg,0.0-23.0-1.0-0.5,0,True,,1,False,,False,False,,False,False,,0,0,8,6,,,1,,,,1,f,,1685,68177c12b166747e3416c165,images/1 (1201).jpg,,FF,,,0,0,6814acf7a2b0960317ac048d,6307f3c967020d1202332b77,,,finalTest,,0,0,354,2248448,,37.48,2025-05-04 15:25:41.018000+00:00,1119,image-keyboard-response,,,,final Foil,,,,1366
6307f3c967020d1202332b77,7w2f8R9bFPio1mQVempp,Yes,0.8888888888888888,0.8535353535353535,False,,,2.3,r,True,True,,,j,T_target,3,,,,,768,6307f3c967020d1202332b77,1 (745).jpg,0.0-12.0-10.0-0.26,0,False,True,1,False,True,True,False,True,True,False,8,8,False,,0,,,1,,,,1,j,,1447,68177c12b166747e3416c165,images/1 (745).jpg,B,B,,14,14,0,6814acf7a2b0960317ac048d,6307f3c967020d1202332b77,,,initialTest_response,27,27,0,0,1436335,,23.95,2025-05-04 15:25:32.154000+00:00,609,image-keyboard-response,1,1,0,"current target, not in next trial",,,,1366
6307f3c967020d1202332b77,862HGhgUyg1RdCIL3lc8,Yes,0.8846153846153846,0.8535353535353535,False,,,2.3,r,False,False,,,j,T_target,3,,,,,768,6307f3c967020d1202332b77,1 (519).jpg,0.0-11.0-10.0-0.25,0,False,True,1,False,True,True,False,True,True,False,7,7,False,,0,,,1,,,,0,f,,1349,68177c12b166747e3416c165,images/1 (519).jpg,B,B,,23,23,0,6814acf7a2b0960317ac048d,6307f3c967020d1202332b77,,,initialTest_response,26,26,0,0,1283586,,21.40,2025-05-04 15:25:32.154000+00:00,532,image-keyboard-response,1,1,0,"current target, not in next trial",,,,1366
6307f3c967020d1202332b77,86sYYhExMDAlniQZ4Af4,Yes,,0.8535353535353535,False,,,2.3,r,,,,,,T_target,3,,,,,768,6307f3c967020d1202332b77,1 (1723).jpg,0.0-9.0-2.0-0.5,0,True,True,1,,True,True,False,True,True,False,5,5,0,10,0,,,1,,,,,,,,68177c12b166747e3416c165,images/1 (1723).jpg,B,B,,6,6,0,6814acf7a2b0960317ac048d,6307f3c967020d1202332b77,,,initial_study,18,18,0,473,854886,,14.26,2025-05-04 15:25:22.473000+00:00,316,image-keyboard-response,1,1,0,"current target, not in next trial",,,,1366
6307f3c967020d1202332b77,888l86cpzmftkfw3sqsW,Yes,0.8851851851851853,0.8535353535353535,,,,2.3,r,True,,,,f,F,3,,,,,768,6307f3c967020d1202332b77,1 (1430).jpg,0.0-21.0-1.0-0.17,0,True,,1,False,,False,False,,False,False,,0,0,6,7,,,1,,,,1,f,,1282,68177c12b166747e3416c165,images/1 (1430).jpg,,FF,,,0,0,6814acf7a2b0960317ac048d,6307f3c967020d1202332b77,,,finalTest,,0,0,270,2134546,,35.58,2025-05-04 15:25:41.018000+00:00,1035,image-keyboard-response,,,,final Foil,,,,1366
6307f3c967020d1202332b77,88m55kM7AzPiE2hbeywW,Yes,,0.8535353535353535,False,,,2.3,r,,,,,,T_target,3,,,,,768,6307f3c967020d1202332b77,1 (2300).jpg,0.0-8.0-2.0-0.9,0,True,True,1,,True,True,False,True,True,False,4,4,0,7,0,,,1,,,,,,,,68177c12b166747e3416c165,images/1 (2300).jpg,B,B,,10,10,0,6814acf7a2b0960317ac048d,6307f3c967020d1202332b77,,,initial_study,1,1,0,302,722285,,12.05,2025-05-04 15:25:22.473000+00:00,244,image-keyboard-response,1,1,0,"current target, not in next trial",,,,1366
6307f3c967020d1202332b77,88uOdydzEd52klnZL16Q,Yes,0.9047619047619048,0.8535353535353535,,,,2.3,r,True,,,,j,T_foil,3,,,,,768,6307f3c967020d1202332b77,1 (1964).jpg,0.0-17.0-1.0-0.44,0,True,,1,True,,False,False,,True,False,,7,False,2,7,,,,,,,1,j,,822,68177c12b166747e3416c165,images/1 (1964).jpg,,Fn,,,0,0,6814acf7a2b0960317ac048d,6307f3c967020d1202332b77,,,finalTest,,28,0,105,1934283,,32.24,2025-05-04 15:25:32.154000+00:00,870,image-keyboard-response,,,,"tested only, not in next trial",,,,1366
6307f3c967020d1202332b77,89094VOu9tdRDWSwSwqa,Yes,0.9186046511627907,0.8535353535353535,,,,2.3,r,True,,,,j,T_nontarget,3,,,,,768,6307f3c967020d1202332b77,1 (2022).jpg,0.0-17.0-1.0-0.25,0,True,,1,True,,True,False,,False,False,,3,0,2,0,,,,,,,1,j,,1005,68177c12b166747e3416c165,images/1 (2022).jpg,,A,,,24,0,6814acf7a2b0960317ac048d,6307f3c967020d1202332b77,,,finalTest,,0,0,86,1915516,,31.93,2025-05-04 15:25:32.154000+00:00,851,image-keyboard-response,,,,"studied only, not in trial",,,,1366
6307f3c967020d1202332b77,89UUVXHj0KBJwoS656Ym,Yes,0.9047619047619048,0.8535353535353535,True,,,2.3,r,False,False,False,,j,T_target,3,,,,,768,6307f3c967020d1202332b77,1 (585).jpg,0.0-8.0-10.0-0.20,0,True,True,1,False,True,True,False,True,True,True,4,4,5,,0,,,1,,,,0,f,,1190,68177c12b166747e3416c165,images/1 (585).jpg,Dn+1,Dn,,16,16,0,6814acf7a2b0960317ac048d,6307f3c967020d1202332b77,,,initialTest_response,21,21,17,213,827620,,13.80,2025-05-04 15:25:22.473000+00:00,299,image-keyboard-response,1,1,1,"current target, in next trial",,,,1366
6307f3c967020d1202332b77,8BHlItl94EqKJ8jO9M8z,Yes,0.8883928571428571,0.8535353535353535,,,,2.3,r,True,,,,j,T_nontarget,3,,,,,768,6307f3c967020d1202332b77,1 (1946).jpg,0.0-20.0-1.0-0.19,0,True,,1,True,,True,False,,False,False,,9,0,5,0,,,,,,,1,j,,1324,68177c12b166747e3416c165,images/1 (1946).jpg,,A,,,20,0,6814acf7a2b0960317ac048d,6307f3c967020d1202332b77,,,finalTest,,0,0,224,2075452,,34.60,2025-05-04 15:25:32.154000+00:00,989,image-keyboard-response,,,,"studied only, not in trial",,,,1366
6307f3c967020d1202332b77,8BgHPHIbEoClUW4BTFNO,Yes,,0.8535353535353535,False,,,2.3,r,,,,,,T_nontarget,3,,,,,768,6307f3c967020d1202332b77,1 (942).jpg,0.0-12.0-2.0-0.15,0,False,True,1,,True,True,False,False,False,False,8,8,0,,0,,,1,,,,,,,,68177c12b166747e3416c165,images/1 (942).jpg,A,A,,16,16,0,6814acf7a2b0960317ac048d,6307f3c967020d1202332b77,,,initial_study,0,0,0,0,1328258,,22.14,2025-05-04 15:25:32.154000+00:00,554,image-keyboard-response,1,0,0,"studied only, not in trial",,,,1366
6307f3c967020d1202332b77,8DcivWSHSKZk5OpNQTT9,Yes,1,0.8535353535353535,True,,,2.3,r,True,True,True,,f,T_foil,3,,,,,768,6307f3c967020d1202332b77,1 (97).jpg,0.0-8.0-10.0-0.1,0,False,False,1,False,False,True,False,True,True,True,4,3,4,,0,,,2,,,,1,f,,1681,68177c12b166747e3416c165,images/1 (97).jpg,Dn,Dn,,0,5,0,6814acf7a2b0960317ac048d,6307f3c967020d1202332b77,,,initialTest_response,2,5,2,0,804312,,13.41,2025-05-04 15:25:22.473000+00:00,280,image-keyboard-response,1,1,1,"current target, in next trial, from last trial",,,,1366
6307f3c967020d1202332b77,8EYs8Bz2sqjcT7MFV1B3,Yes,,0.8535353535353535,False,,,2.3,r,,,,,,T_target,3,,,,,768,6307f3c967020d1202332b77,1 (615).jpg,0.0-14.0-2.0-0.2,0,False,True,1,,True,True,False,True,True,False,10,10,0,,0,,,1,,,,,,,,68177c12b166747e3416c165,images/1 (615).jpg,B,B,,3,3,0,6814acf7a2b0960317ac048d,6307f3c967020d1202332b77,,,initial_study,9,9,0,0,1594627,,26.58,2025-05-04 15:25:32.154000+00:00,693,image-keyboard-response,1,1,0,"current target, not in next trial",,,,1366
6307f3c967020d1202332b77,8K9nuKARBVBRcl7kvKW8,Yes,,0.8535353535353535,,,,2.3,r,,,,,,,3,,,,,768,6307f3c967020d1202332b77,,0.0-14.0-9.0-0.0,0,,,1,,,,,,,,,,,,,,,,,,,,,,,68177c12b166747e3416c165,"<div style=""font-size:60px;"">+</div>",,,,,,,6814acf7a2b0960317ac048d,6307f3c967020d1202332b77,,,fixation,,,,,1688680,,28.15,2025-05-04 15:25:32.154000+00:00,734,html-keyboard-response,,,,,,,,1366
6307f3c967020d1202332b77,8Lmh6M6vUj3lFeeSNXIX,Yes,0.8816326530612245,0.8535353535353535,,,,2.3,r,True,,,,f,F,3,,,,,768,6307f3c967020d1202332b77,1 (212).jpg,0.0-20.0-1.0-0.40,0,True,,1,False,,False,False,,False,False,,0,0,5,3,,,1,,,,1,f,,1175,68177c12b166747e3416c165,images/1 (212).jpg,,FF,,,0,0,6814acf7a2b0960317ac048d,6307f3c967020d1202332b77,,,finalTest,,0,0,245,2102704,,35.05,2025-05-04 15:25:41.018000+00:00,1010,image-keyboard-response,,,,final Foil,,,,1366
6307f3c967020d1202332b77,8PcX5BwF5oS67qsTLsIE,Yes,,0.8535353535353535,False,,,2.3,r,,,,,,T_nontarget,3,,,,,768,6307f3c967020d1202332b77,1 (1013).jpg,0.0-11.0-2.0-0.28,0,False,True,1,,True,True,False,False,False,False,7,7,0,,0,,,1,,,,,,,,68177c12b166747e3416c165,images/1 (1013).jpg,A,A,,29,29,0,6814acf7a2b0960317ac048d,6307f3c967020d1202332b77,,,initial_study,0,0,0,0,1200240,,20.01,2025-05-04 15:25:22.473000+00:00,491,image-keyboard-response,1,0,0,"studied only, not in trial",,,,1366
6307f3c967020d1202332b77,8ShjV5toaWdGvWuLEKtD,Yes,0.9090909090909091,0.8535353535353535,False,,,2.3,r,True,True,,,j,T_target,3,,,,,768,6307f3c967020d1202332b77,1 (1291).jpg,0.0-8.0-10.0-0.10,0,False,True,1,False,True,True,False,True,True,False,4,4,False,,0,,,1,,,,1,j,,947,68177c12b166747e3416c165,images/1 (1291).jpg,B,B,,21,21,0,6814acf7a2b0960317ac048d,6307f3c967020d1202332b77,,,initialTest_response,11,11,0,0,815546,,13.60,2025-05-04 15:25:22.473000+00:00,289,image-keyboard-response,1,1,0,"current target, not in next trial",,,,1366
6307f3c967020d1202332b77,8W0OXz9I9Hy75pcTIGB9,Yes,0.7857142857142857,0.8535353535353535,False,,,2.3,r,True,True,,,f,T_foil,3,,,,,768,6307f3c967020d1202332b77,1 (340).jpg,0.0-10.0-10.0-0.27,0,True,True,1,False,False,False,False,True,True,False,6,6,False,9,0,,,1,,,,1,f,,1745,68177c12b166747e3416c165,images/1 (340).jpg,Fn+1,Fn,,0,0,0,6814acf7a2b0960317ac048d,6307f3c967020d1202332b77,,,initialTest_response,28,28,0,422,1130046,,18.84,2025-05-04 15:25:22.473000+00:00,458,image-keyboard-response,0,1,0,"tested only, not in next trial",,,,1366
6307f3c967020d1202332b77,8WIh9Vwu6rrs3D8CdNMG,Yes,0.8815489749430523,0.8535353535353535,,,,2.3,r,True,,,,j,T_target,3,,,,,768,6307f3c967020d1202332b77,1 (1475).jpg,0.0-24.0-1.0-0.42,0,True,,1,True,,True,False,,True,False,,2,0,9,0,,,,,,,1,j,,1638,68177c12b166747e3416c165,images/1 (1475).jpg,,B,,,3,0,6814acf7a2b0960317ac048d,6307f3c967020d1202332b77,,,finalTest,,30,0,439,2367771,,39.47,2025-05-04 15:25:41.018000+00:00,1204,image-keyboard-response,,,,"current target, not in next trial",,,,1366
6307f3c967020d1202332b77,8Y6YneUbLIvFuJPRpHGT,Yes,,0.8535353535353535,False,,,2.3,r,,,,,,T_target,3,,,,,768,6307f3c967020d1202332b77,1 (949).jpg,0.0-7.0-2.0-0.10,0,True,True,1,,True,True,False,True,True,False,3,3,0,3,0,,,1,,,,,,,,68177c12b166747e3416c165,images/1 (949).jpg,B,B,,11,11,0,6814acf7a2b0960317ac048d,6307f3c967020d1202332b77,,,initial_study,17,17,0,143,580083,,9.67,2025-05-04 15:25:22.473000+00:00,169,image-keyboard-response,1,1,0,"current target, not in next trial",,,,1366
6307f3c967020d1202332b77,8ab778NMV2nmB72A3fzn,Yes,0.875,0.8535353535353535,False,,,2.3,r,True,True,,,j,T_target,3,,,,,768,6307f3c967020d1202332b77,1 (1041).jpg,0.0-13.0-10.0-0.7,0,True,True,1,False,True,True,False,True,True,False,9,9,False,,0,,,1,,,,1,j,,1406,68177c12b166747e3416c165,images/1 (1041).jpg,B,B,,26,26,0,6814acf7a2b0960317ac048d,6307f3c967020d1202332b77,,,initialTest_response,8,8,0,79,1556028,,25.94,2025-05-04 15:25:32.154000+00:00,666,image-keyboard-response,1,1,0,"current target, not in next trial",,,,1366
6307f3c967020d1202332b77,8bUmJ4uTk89bRbWbnumd,Yes,0.7857142857142857,0.8535353535353535,False,,,2.3,r,True,True,,,j,T_target,3,,,,,768,6307f3c967020d1202332b77,1 (1172).jpg,0.0-13.0-10.0-0.13,0,True,True,1,False,True,True,False,True,True,False,9,9,False,,0,,,1,,,,1,j,,1096,68177c12b166747e3416c165,images/1 (1172).jpg,B,B,,16,16,0,6814acf7a2b0960317ac048d,6307f3c967020d1202332b77,,,initialTest_response,14,14,0,369,1564669,,26.08,2025-05-04 15:25:32.154000+00:00,672,image-keyboard-response,1,1,0,"current target, not in next trial",,,,1366
6307f3c967020d1202332b77,8cubnz3aTh5QgHLoO0vk,Yes,,0.8535353535353535,,,,2.3,r,,,,,,,3,,,,,768,6307f3c967020d1202332b77,,0.0-13.0-5.0-0.3,0,,,1,,,,,,,,9,,,,,,,,,4,,,,,,68177c12b166747e3416c165,7,,,7,,,,6814acf7a2b0960317ac048d,6307f3c967020d1202332b77,,60,digitPresentation,,,,,1522494,,25.38,2025-05-04 15:25:32.154000+00:00,650,html-keyboard-response,,,,,,,,1366
6307f3c967020d1202332b77,8cz5qqwIaXoIIG2tNDYi,Yes,,0.8535353535353535,,,,2.3,r,,,,,,,3,,,,,768,6307f3c967020d1202332b77,,0.0-10.0-7.0-0.0,0,,,1,,,,,,,,,,,,,,,,,,,,,,,68177c12b166747e3416c165,<p background:white>CORRECT!</p>,,,,,,,6814acf7a2b0960317ac048d,6307f3c967020d1202332b77,,,promptfeedback,,,,,1086790,,18.12,2025-05-04 15:25:22.473000+00:00,428,html-keyboard-response,,,,,,,,1366
6307f3c967020d1202332b77,8htNXlD4upDj3wtiL1YC,Yes,0.8819599109131402,0.8535353535353535,,,,2.3,r,True,,,,f,F,3,,,,,768,6307f3c967020d1202332b77,1 (2088).JPG,0.0-25.0-1.0-0.4,0,True,,1,False,,False,False,,False,False,,0,0,10,6,,,1,,,,1,f,,1436,68177c12b166747e3416c165,images/1 (2088).JPG,,FF,,,0,0,6814acf7a2b0960317ac048d,6307f3c967020d1202332b77,,,finalTest,,0,0,449,2385835,,39.77,2025-05-04 15:25:41.018000+00:00,1214,image-keyboard-response,,,,final Foil,,,,1366
6307f3c967020d1202332b77,8htQpkzS5jUWA13DlZma,Yes,,0.8535353535353535,False,,,2.3,r,,,,,,T_nontarget,3,,,,,768,6307f3c967020d1202332b77,1 (2303).jpg,0.0-7.0-2.0-0.6,0,True,True,1,,True,True,False,False,False,False,3,3,0,9,0,,,1,,,,,,,,68177c12b166747e3416c165,images/1 (2303).jpg,A,A,,7,7,0,6814acf7a2b0960317ac048d,6307f3c967020d1202332b77,,,initial_study,0,0,0,409,571617,,9.53,2025-05-04 15:25:22.473000+00:00,165,image-keyboard-response,1,0,0,"studied only, not in trial",,,,1366
6307f3c967020d1202332b77,8jtCzLotvPlIE8sEzqaa,Yes,0.8899676375404529,0.8535353535353535,,,,2.3,r,False,,,,f,F,3,,,,,768,6307f3c967020d1202332b77,1 (436).jpg,0.0-22.0-1.0-0.8,0,True,,1,False,,False,False,,False,False,,0,0,7,3,,,1,,,,0,j,,1506,68177c12b166747e3416c165,images/1 (436).jpg,,FF,,,0,0,6814acf7a2b0960317ac048d,6307f3c967020d1202332b77,,,finalTest,,0,0,309,2186919,,36.46,2025-05-04 15:25:41.018000+00:00,1074,image-keyboard-response,,,,final Foil,,,,1366
6307f3c967020d1202332b77,8ntquOPavXNjsLPOYgcF,Yes,,0.8535353535353535,,,,2.3,r,,,,,,,3,,,,,768,6307f3c967020d1202332b77,,0.0-12.0-0.0-0.0,0,,,1,,,,,,,,,,,,,,,,,,,,enter,,3324,68177c12b166747e3416c165,"
    <p style='text-align: justify;color: black;background: white;font: caption-;''>
        Press the 'enter' key to see the next list of pictures. </p>
    ",,,,,,,6814acf7a2b0960317ac048d,6307f3c967020d1202332b77,,,,,,,,1293358,,21.56,2025-05-04 15:25:32.154000+00:00,537,html-keyboard-response,,,,,,,,1366
6307f3c967020d1202332b77,8q8IIUSW4jQqM00oigsO,Yes,,0.8535353535353535,True,,,2.3,r,,,,,,T_target,3,,,,,768,6307f3c967020d1202332b77,1 (2362).jpg,0.0-10.0-2.0-0.14,0,True,True,1,,True,True,False,True,True,True,6,6,7,6,0,,,1,,,,,,,,68177c12b166747e3416c165,images/1 (2362).jpg,Dn+1,Dn,,15,15,0,6814acf7a2b0960317ac048d,6307f3c967020d1202332b77,,,initial_study,21,21,9,253,1021888,,17.04,2025-05-04 15:25:22.473000+00:00,401,image-keyboard-response,1,1,1,"current target, in next trial",,,,1366
6307f3c967020d1202332b77,8qFvnnyK0GfrYPdxmrPM,Yes,0.8855585831062669,0.8535353535353535,,,,2.3,r,True,,,,j,T_nontarget,3,,,,,768,6307f3c967020d1202332b77,1 (868).jpg,0.0-23.0-1.0-0.18,0,True,,1,True,,True,False,,False,False,,7,0,8,0,,,,,,,1,j,,1238,68177c12b166747e3416c165,images/1 (868).jpg,,A,,,5,0,6814acf7a2b0960317ac048d,6307f3c967020d1202332b77,,,finalTest,,0,0,367,2265320,,37.76,2025-05-04 15:25:41.018000+00:00,1132,image-keyboard-response,,,,"studied only, not in trial",,,,1366
6307f3c967020d1202332b77,8qRTWhjmtBui3xzIKSfc,Yes,0.8992248062015504,0.8535353535353535,,,,2.3,r,True,,,,f,F,3,,,,,768,6307f3c967020d1202332b77,1 (447).jpg,0.0-18.0-1.0-0.20,0,True,,1,False,,False,False,,False,False,,0,0,3,1,,,1,,,,1,f,,1017,68177c12b166747e3416c165,images/1 (447).jpg,,FF,,,0,0,6814acf7a2b0960317ac048d,6307f3c967020d1202332b77,,,finalTest,,0,0,129,1958544,,32.65,2025-05-04 15:25:32.154000+00:00,894,image-keyboard-response,,,,final Foil,,,,1366
6307f3c967020d1202332b77,8tSMem7NMORwJJqfHScq,Yes,,0.8535353535353535,False,,,2.3,r,,,,,,T_nontarget,3,,,,,768,6307f3c967020d1202332b77,1 (327).jpg,0.0-6.0-2.0-0.19,0,True,True,1,,True,True,False,False,False,False,2,2,0,7,0,,,1,,,,,,,,68177c12b166747e3416c165,images/1 (327).jpg,A,A,,20,20,0,6814acf7a2b0960317ac048d,6307f3c967020d1202332b77,,,initial_study,0,0,0,338,451323,,7.53,2025-05-04 15:25:22.473000+00:00,102,image-keyboard-response,1,0,0,"studied only, not in trial",,,,1366
6307f3c967020d1202332b77,8tWdEj2iHQYPT5OGrINJ,Yes,,0.8535353535353535,True,,,2.3,r,,,,,,T_target,3,,,,,768,6307f3c967020d1202332b77,1 (97).jpg,0.0-7.0-2.0-0.4,0,False,True,1,,True,True,False,True,True,True,3,3,4,,0,,,1,,,,,,,,68177c12b166747e3416c165,images/1 (97).jpg,Dn+1,Dn,,5,5,0,6814acf7a2b0960317ac048d,6307f3c967020d1202332b77,,,initial_study,4,4,2,0,567367,,9.46,2025-05-04 15:25:22.473000+00:00,163,image-keyboard-response,1,1,1,"current target, in next trial",,,,1366
6307f3c967020d1202332b77,90LnSgNkXkf0Lh8FeJbA,Yes,0.7857142857142857,0.8535353535353535,False,,,2.3,r,True,True,,,j,T_target,3,,,,,768,6307f3c967020d1202332b77,1 (902).jpg,0.0-14.0-10.0-0.13,0,True,True,1,False,True,True,False,True,True,False,10,10,0,,0,,,1,,,,1,j,,1188,68177c12b166747e3416c165,images/1 (902).jpg,B,B,,13,13,0,6814acf7a2b0960317ac048d,6307f3c967020d1202332b77,,,initialTest_response,14,14,0,59,1707845,,28.47,2025-05-04 15:25:32.154000+00:00,748,image-keyboard-response,1,1,0,"current target, not in next trial",,,,1366
6307f3c967020d1202332b77,91iJqmJ0xmmkB3sdRJEM,Yes,0.8777292576419212,0.8535353535353535,,,,2.3,r,False,,,,j,T_target,3,,,,,768,6307f3c967020d1202332b77,1 (1237).jpg,0.0-25.0-1.0-0.13,0,True,,1,True,,True,False,,True,False,,6,0,10,0,,,,,,,0,f,,1642,68177c12b166747e3416c165,images/1 (1237).jpg,,B,,,5,0,6814acf7a2b0960317ac048d,6307f3c967020d1202332b77,,,finalTest,,30,0,458,2400259,,40.01,2025-05-04 15:25:41.018000+00:00,1223,image-keyboard-response,,,,"current target, not in next trial",,,,1366
6307f3c967020d1202332b77,92ABuYb3APesmKsmwvHH,Yes,0.9090909090909091,0.8535353535353535,,,,2.3,r,True,,,,j,T_nontarget,3,,,,,768,6307f3c967020d1202332b77,1 (2100).jpg,0.0-16.0-1.0-0.10,0,True,,1,True,,True,False,,False,False,,4,0,1,0,,,,,,,1,j,,1419,68177c12b166747e3416c165,images/1 (2100).jpg,,A,,,22,0,6814acf7a2b0960317ac048d,6307f3c967020d1202332b77,,,finalTest,,0,0,11,1828794,,30.49,2025-05-04 15:25:32.154000+00:00,776,image-keyboard-response,,,,"studied only, not in trial",,,,1366
6307f3c967020d1202332b77,93NHH5XA3aGh1qyhY52I,Yes,0.8903654485049832,0.8535353535353535,,,,2.3,r,True,,,,j,T_nontarget,3,,,,,768,6307f3c967020d1202332b77,1 (497).jpg,0.0-22.0-1.0-0.0,0,True,,1,True,,True,False,,False,False,,6,0,7,0,,,,,,,1,j,,1657,68177c12b166747e3416c165,images/1 (497).jpg,,A,,,23,0,6814acf7a2b0960317ac048d,6307f3c967020d1202332b77,,,finalTest,,0,0,301,2176320,,36.28,2025-05-04 15:25:41.018000+00:00,1066,image-keyboard-response,,,,"studied only, not in trial",,,,1366
6307f3c967020d1202332b77,954xw00DQibTecYoPo85,Yes,0.7272727272727273,0.8535353535353535,True,,,2.3,r,True,True,False,,j,T_target,3,,,,,768,6307f3c967020d1202332b77,1 (284).jpg,0.0-13.0-10.0-0.10,0,True,True,1,False,True,True,False,True,True,True,9,9,10,,0,,,1,,,,1,j,,1189,68177c12b166747e3416c165,images/1 (284).jpg,Dn+1,Dn,,29,29,0,6814acf7a2b0960317ac048d,6307f3c967020d1202332b77,,,initialTest_response,11,11,18,330,1560045,,26.01,2025-05-04 15:25:32.154000+00:00,669,image-keyboard-response,1,1,1,"current target, in next trial",,,,1366
6307f3c967020d1202332b77,97UphB2Kz4J34PQI3sWm,Yes,0.8808139534883719,0.8535353535353535,,,,2.3,r,True,,,,f,F,3,,,,,768,6307f3c967020d1202332b77,1 (2169).jpg,0.0-22.0-1.0-0.43,0,True,,1,False,,False,False,,False,False,,0,0,7,9,,,1,,,,1,f,,1531,68177c12b166747e3416c165,images/1 (2169).jpg,,FF,,,0,0,6814acf7a2b0960317ac048d,6307f3c967020d1202332b77,,,finalTest,,0,0,344,2233295,,37.23,2025-05-04 15:25:41.018000+00:00,1109,image-keyboard-response,,,,final Foil,,,,1366
6307f3c967020d1202332b77,994DxhplsQJ2aADo4WEI,Yes,0.9090909090909092,0.8535353535353535,,,,2.3,r,True,,,,j,T_target,3,,,,,768,6307f3c967020d1202332b77,1 (1423).jpg,0.0-17.0-1.0-0.5,0,True,,1,True,,True,False,,True,False,,3,0,2,0,,,,,,,1,j,,779,68177c12b166747e3416c165,images/1 (1423).jpg,,B,,,25,0,6814acf7a2b0960317ac048d,6307f3c967020d1202332b77,,,finalTest,,27,0,66,1894541,,31.58,2025-05-04 15:25:32.154000+00:00,831,image-keyboard-response,,,,"current target, not in next trial",,,,1366
6307f3c967020d1202332b77,99ZG3SsqBbGiVQVKM6TQ,Yes,,0.8535353535353535,,,,2.3,r,,,,,,,3,,,,,768,6307f3c967020d1202332b77,,0.0-15.0-0.0,0,,,1,,,,,,,,,,,,,,,,,,,,enter,,84821,68177c12b166747e3416c165,"<p style='text-align: justify;color: black;background: white;font: caption-;paddingRight =30px; paddingLeft =30px;'>
    <strong>You have now completed the first part of the study. <br>

     <strong>You will now see a very long series of test pictures.</strong> For each test,respond with the <FONT color=""#C41E3A""><strong>""J""</FONT></strong> key to indicate you have seen this picture some time during first part of the experiment, whether <FONT color=""#C41E3A""><strong>studied or tested</strong> on ANY list</FONT>. You will press the <FONT color=""#C41E3A""><strong>""F""</FONT></strong> key to indicate that you have NEVER seen this pictures in first part of the study.</p>
  <p style='text-align: justify;color: black;background: white;font: caption-;paddingRight =10px; paddingLeft =10px;''>After each respond, your accumulated accuracy will be presented like before.  </p>


<p style='text-align: justify;color: black;background: white;font: caption-;paddingRight =30px; paddingLeft =30px;'>If you have read and understood these instructions, press the RETURN/ENTER key to go to the testing. </p>",,,,,,,6814acf7a2b0960317ac048d,6307f3c967020d1202332b77,,,finalt_instructions,,,,,1814312,,30.25,2025-05-04 15:25:32.154000+00:00,765,html-keyboard-response,,,,,,,,1366
6307f3c967020d1202332b77,9Dheraf3NBo992Ny2API,Yes,0.8941798941798942,0.8535353535353535,,,,2.3,r,True,,,,f,F,3,,,,,768,6307f3c967020d1202332b77,1 (50).jpg,0.0-19.0-1.0-0.32,0,True,,1,False,,False,False,,False,False,,0,0,4,9,,,1,,,,1,f,,1124,68177c12b166747e3416c165,images/1 (50).jpg,,FF,,,0,0,6814acf7a2b0960317ac048d,6307f3c967020d1202332b77,,,finalTest,,0,0,189,2029985,,33.84,2025-05-04 15:25:32.154000+00:00,954,image-keyboard-response,,,,final Foil,,,,1366
6307f3c967020d1202332b77,9Fc8eNPd3I3q3XjmiA3N,Yes,0.7777777777777778,0.8535353535353535,False,,,2.3,r,True,True,,,j,T_target,3,,,,,768,6307f3c967020d1202332b77,1 (615).jpg,0.0-14.0-10.0-0.8,0,False,True,1,False,True,True,False,True,True,False,10,10,0,,0,,,1,,,,1,j,,1151,68177c12b166747e3416c165,images/1 (615).jpg,B,B,,3,3,0,6814acf7a2b0960317ac048d,6307f3c967020d1202332b77,,,initialTest_response,9,9,0,0,1701476,,28.36,2025-05-04 15:25:32.154000+00:00,743,image-keyboard-response,1,1,0,"current target, not in next trial",,,,1366
6307f3c967020d1202332b77,9FhtHqmJnFWUEWsFpWRs,Yes,,0.8535353535353535,False,,,2.3,r,,,,,,T_nontarget,3,,,,,768,6307f3c967020d1202332b77,1 (1140).jpg,0.0-7.0-2.0-0.21,0,True,True,1,,True,True,False,False,False,False,3,3,0,7,0,,,1,,,,,,,,68177c12b166747e3416c165,images/1 (1140).jpg,A,A,,22,22,0,6814acf7a2b0960317ac048d,6307f3c967020d1202332b77,,,initial_study,0,0,0,312,603384,,10.06,2025-05-04 15:25:22.473000+00:00,180,image-keyboard-response,1,0,0,"studied only, not in trial",,,,1366
6307f3c967020d1202332b77,9JyYOKSISJQVn3ne3NZh,Yes,0.903225806451613,0.8535353535353535,,,,2.3,r,True,,,,j,T_foil,3,,,,,768,6307f3c967020d1202332b77,1 (956).jpg,0.0-17.0-1.0-0.1,0,True,,1,True,,False,False,,True,False,,5,False,2,5,,,,,,,1,j,,924,68177c12b166747e3416c165,images/1 (956).jpg,,Fn,,,0,0,6814acf7a2b0960317ac048d,6307f3c967020d1202332b77,,,finalTest,,10,0,62,1890167,,31.51,2025-05-04 15:25:32.154000+00:00,827,image-keyboard-response,,,,"tested only, not in next trial",,,,1366
6307f3c967020d1202332b77,9O9TtzZ1EoQSkwIAce5S,Yes,0.9044117647058824,0.8535353535353535,,,,2.3,r,True,,,,f,F,3,,,,,768,6307f3c967020d1202332b77,1 (2231).jpg,0.0-18.0-1.0-0.27,0,True,,1,False,,False,False,,False,False,,0,0,3,3,,,1,,,,1,f,,922,68177c12b166747e3416c165,images/1 (2231).jpg,,FF,,,0,0,6814acf7a2b0960317ac048d,6307f3c967020d1202332b77,,,finalTest,,0,0,136,1965916,,32.77,2025-05-04 15:25:32.154000+00:00,901,image-keyboard-response,,,,final Foil,,,,1366
6307f3c967020d1202332b77,9OBhuNsprZ6nRfYaziWj,Yes,,0.8535353535353535,False,,,2.3,r,,,,,,T_nontarget,3,,,,,768,6307f3c967020d1202332b77,1 (172).jpg,0.0-5.0-2.0-0.5,0,False,True,1,,True,True,False,False,False,False,1,1,0,,0,,,1,,,,,,,,68177c12b166747e3416c165,images/1 (172).jpg,A,A,,6,6,0,6814acf7a2b0960317ac048d,6307f3c967020d1202332b77,,,initial_study,0,0,0,0,234896,,3.92,2025-05-04 15:25:22.473000+00:00,12,image-keyboard-response,1,0,0,"studied only, not in trial",,,,1366
6307f3c967020d1202332b77,9S5f7JBgncatQPSFpq2d,Yes,0.9032258064516129,0.8535353535353535,,,,2.3,r,True,,,,j,T_nontarget,3,,,,,768,6307f3c967020d1202332b77,1 (1542).jpg,0.0-18.0-1.0-0.46,0,True,,1,True,,True,False,,False,False,,4,0,3,0,,,,,,,1,j,,860,68177c12b166747e3416c165,images/1 (1542).jpg,,A,,,9,0,6814acf7a2b0960317ac048d,6307f3c967020d1202332b77,,,finalTest,,0,0,155,1987955,,33.14,2025-05-04 15:25:32.154000+00:00,920,image-keyboard-response,,,,"studied only, not in trial",,,,1366
6307f3c967020d1202332b77,9T7YglDouK3tzPZWZD9p,Yes,,0.8535353535353535,False,,,2.3,r,,,,,,T_target,3,,,,,768,6307f3c967020d1202332b77,1 (1992).jpg,0.0-11.0-2.0-0.10,0,True,True,1,,True,True,False,True,True,False,7,7,0,10,0,,,1,,,,,,,,68177c12b166747e3416c165,images/1 (1992).jpg,B,B,,11,11,0,6814acf7a2b0960317ac048d,6307f3c967020d1202332b77,,,initial_study,12,12,0,448,1162107,,19.38,2025-05-04 15:25:22.473000+00:00,473,image-keyboard-response,1,1,0,"current target, not in next trial",,,,1366
6307f3c967020d1202332b77,9TNlckeHmYbPU9tsJDwY,Yes,0.8952879581151832,0.8535353535353535,,,,2.3,r,True,,,,f,F,3,,,,,768,6307f3c967020d1202332b77,1 (392).jpg,0.0-19.0-1.0-0.34,0,True,,1,False,,False,False,,False,False,,0,0,4,0,,,1,,,,1,f,,1418,68177c12b166747e3416c165,images/1 (392).jpg,,FF,,,0,0,6814acf7a2b0960317ac048d,6307f3c967020d1202332b77,,,finalTest,,0,0,191,2032879,,33.89,2025-05-04 15:25:32.154000+00:00,956,image-keyboard-response,,,,final Foil,,,,1366
6307f3c967020d1202332b77,9Tjyqv085NNshNRA2GDl,Yes,0.8880407124681933,0.8535353535353535,,,,2.3,r,True,True,False,,j,T_target,3,,,,,768,6307f3c967020d1202332b77,1 (1472).jpg,0.0-23.0-1.0-0.44,0,True,,1,True,,True,False,,True,True,,2,3,8,0,,,,,,,1,j,,1029,68177c12b166747e3416c165,images/1 (1472).jpg,,Dn,,,26,0,6814acf7a2b0960317ac048d,6307f3c967020d1202332b77,,,finalTest,,21,13,393,2300879,,38.35,2025-05-04 15:25:41.018000+00:00,1158,image-keyboard-response,,,,"current target, in next trial",,,,1366
6307f3c967020d1202332b77,9W2l7eJJLvCybwG5wsfy,Yes,0.8858131487889271,0.8535353535353535,,,,2.3,r,True,,,,j,T_nontarget,3,,,,,768,6307f3c967020d1202332b77,1 (933).jpg,0.0-21.0-1.0-0.36,0,True,,1,True,,True,False,,False,False,,2,0,6,0,,,,,,,1,j,,1020,68177c12b166747e3416c165,images/1 (933).jpg,,A,,,16,0,6814acf7a2b0960317ac048d,6307f3c967020d1202332b77,,,finalTest,,0,0,289,2160583,,36.02,2025-05-04 15:25:41.018000+00:00,1054,image-keyboard-response,,,,"studied only, not in trial",,,,1366
6307f3c967020d1202332b77,9XuCbx8vQ65kZ8UiPJHU,Yes,0.8860759493670884,0.8535353535353535,,,,2.3,r,False,,,,j,T_target,3,,,,,768,6307f3c967020d1202332b77,1 (483).jpg,0.0-23.0-1.0-0.46,0,True,,1,True,,True,False,,True,False,,3,0,8,0,,,,,,,0,f,,1484,68177c12b166747e3416c165,images/1 (483).jpg,,B,,,23,0,6814acf7a2b0960317ac048d,6307f3c967020d1202332b77,,,finalTest,,23,0,395,2303584,,38.40,2025-05-04 15:25:41.018000+00:00,1160,image-keyboard-response,,,,"current target, not in next trial",,,,1366
6307f3c967020d1202332b77,9c6ffig937FULdR8ibRS,Yes,,0.8535353535353535,False,,,2.3,r,,,,,,T_nontarget,3,,,,,768,6307f3c967020d1202332b77,1 (958).jpg,0.0-8.0-2.0-0.19,0,True,True,1,,True,True,False,False,False,False,4,4,0,3,0,,,1,,,,,,,,68177c12b166747e3416c165,images/1 (958).jpg,A,A,,20,20,0,6814acf7a2b0960317ac048d,6307f3c967020d1202332b77,,,initial_study,0,0,0,113,743452,,12.40,2025-05-04 15:25:22.473000+00:00,254,image-keyboard-response,1,0,0,"studied only, not in trial",,,,1366
6307f3c967020d1202332b77,9fWYziKjqZRErHfKDqCD,Yes,,0.8535353535353535,,,,2.3,r,,,,,,,3,,,,,768,6307f3c967020d1202332b77,,0.0-5.0-5.0-0.6,0,,,1,,,,,,,,1,,,,,,,,,7,,,,,,68177c12b166747e3416c165,7,,,7,,,,6814acf7a2b0960317ac048d,6307f3c967020d1202332b77,,49,digitPresentation,,,,,309178,,5.16,2025-05-04 15:25:22.473000+00:00,45,html-keyboard-response,,,,,,,,1366
6307f3c967020d1202332b77,9g4wDjAlZ1lhB78ucNL2,Yes,0.883977900552486,0.8535353535353535,,,,2.3,r,True,,,,f,F,3,,,,,768,6307f3c967020d1202332b77,1 (1005).jpg,0.0-23.0-1.0-0.13,0,True,,1,False,,False,False,,False,False,,0,0,8,10,,,1,,,,1,f,,1156,68177c12b166747e3416c165,images/1 (1005).jpg,,FF,,,0,0,6814acf7a2b0960317ac048d,6307f3c967020d1202332b77,,,finalTest,,0,0,362,2259003,,37.66,2025-05-04 15:25:41.018000+00:00,1127,image-keyboard-response,,,,final Foil,,,,1366
6307f3c967020d1202332b77,9gmxLbcjWIPPYpa5eCZo,Yes,,0.8535353535353535,True,,,2.3,r,,,,,,T_target,3,,,,,768,6307f3c967020d1202332b77,1 (2134).jpg,0.0-7.0-2.0-0.18,0,True,True,1,,True,True,False,True,True,True,3,3,4,1,0,,,1,,,,,,,,68177c12b166747e3416c165,images/1 (2134).jpg,Dn+1,Dn,,19,19,0,6814acf7a2b0960317ac048d,6307f3c967020d1202332b77,,,initial_study,18,18,28,53,597034,,9.96,2025-05-04 15:25:22.473000+00:00,177,image-keyboard-response,1,1,1,"current target, in next trial",,,,1366
6307f3c967020d1202332b77,9mR3caUNQEyCZ40r9Ku2,Yes,0.9152542372881356,0.8535353535353535,,,,2.3,r,True,True,False,,j,T_foil,3,,,,,768,6307f3c967020d1202332b77,1 (963).jpg,0.0-18.0-1.0-0.9,0,True,,1,True,,False,False,,True,False,,9,0,3,9,,,,,,,1,j,,854,68177c12b166747e3416c165,images/1 (963).jpg,,Fnn,,,0,0,6814acf7a2b0960317ac048d,6307f3c967020d1202332b77,,,finalTest,,1,0,118,1947366,,32.46,2025-05-04 15:25:32.154000+00:00,883,image-keyboard-response,,,,"tested only, in next trial",,,,1366
6307f3c967020d1202332b77,9ootIREQ1lUCISBZ1OEY,Yes,,0.8535353535353535,False,,,2.3,r,,,,,,T_nontarget,3,,,,,768,6307f3c967020d1202332b77,1 (1946).jpg,0.0-13.0-2.0-0.19,0,True,True,1,,True,True,False,False,False,False,9,9,0,5,0,,,1,,,,,,,,68177c12b166747e3416c165,images/1 (1946).jpg,A,A,,20,20,0,6814acf7a2b0960317ac048d,6307f3c967020d1202332b77,,,initial_study,0,0,0,224,1486944,,24.79,2025-05-04 15:25:32.154000+00:00,634,image-keyboard-response,1,0,0,"studied only, not in trial",,,,1366
6307f3c967020d1202332b77,9q93r2JYm6dKi3vWyTya,Yes,,0.8535353535353535,False,,,2.3,r,,,,,,T_target,3,,,,,768,6307f3c967020d1202332b77,1 (1795).jpg,0.0-14.0-2.0-0.27,0,True,True,1,,True,True,False,True,True,False,10,10,0,9,0,,,1,,,,,,,,68177c12b166747e3416c165,images/1 (1795).jpg,B,B,,28,28,0,6814acf7a2b0960317ac048d,6307f3c967020d1202332b77,,,initial_study,3,3,0,438,1647613,,27.47,2025-05-04 15:25:32.154000+00:00,718,image-keyboard-response,1,1,0,"current target, not in next trial",,,,1366
6307f3c967020d1202332b77,9wcysPxiLlJXP5G115em,Yes,0.8181818181818182,0.8535353535353535,True,,,2.3,r,False,False,False,,f,T_foil,3,,,,,768,6307f3c967020d1202332b77,1 (1715).jpg,0.0-6.0-10.0-0.21,0,True,False,1,False,False,False,False,True,False,True,2,1,2,,0,,,2,,,,0,j,,1189,68177c12b166747e3416c165,images/1 (1715).jpg,Fnn,Fnn,,0,0,0,6814acf7a2b0960317ac048d,6307f3c967020d1202332b77,,,initialTest_response,22,0,22,8,541267,,9.03,2025-05-04 15:25:22.473000+00:00,148,image-keyboard-response,0,1,1,"tested only, in next trial, from last trial",,,,1366
6307f3c967020d1202332b77,9xHrvYEeEhuxGqNMnCNA,Yes,,0.8535353535353535,,,,2.3,r,,,,,,,3,,,,,768,6307f3c967020d1202332b77,,0.0-9.0-8.0-0.0,0,,,1,,,,,,,,,,,,,,,,,,,,,,,68177c12b166747e3416c165,Now judge if you have seen this pictures from the list you JUST studied before the digits,,,,,,,6814acf7a2b0960317ac048d,6307f3c967020d1202332b77,,,prompt,,,,,942021,,15.71,2025-05-04 15:25:22.473000+00:00,353,html-keyboard-response,,,,,,,,1366
