parent_document_id,document_id,accumulated_accuracy,anRepeatedItem,browser,browser_version,codeversion,condition,correct,correct_appear1,correct_appear2,correct_response,correct_response_key,current_assignmentTypesWithinList,designversion,fullscreen,height,id,id_picName,internal_node_id,is_changedfullscreen,is_chosenFinal,is_currentObjAppear1,is_finished,is_old,is_studied_appear0_initial,is_studied_appear1_initial,is_studied_appear2_initial,is_tested_appear0_initial,is_tested_appear1_initial,is_tested_appear2_initial,listNum_appear0_initial,listNum_appear1_initial,listNum_appear2_initial,listNum_infinalOrder,listNum_pickedFrom,microphone,mobile,num_CurrObjAppear,os,presPos_digit,question_order,recognition_correct,response,responsesum,rt,session_id,stimulus,stimulusConditionName_nPlusOneTrial,stimulusConditions,stimulus_id,studyPos_appear0_initial,studyPos_appear1_initial,studyPos_appear2_initial,study_id,subject_id,success,sum_currList,task,testPos_appear0_initial,testPos_appear1_initial,testPos_appear2_initial,testPos_final,time_elapsed,timepassed_mins,trial_index,trial_type,type_code_studiedCurr,type_code_testiedCurr,type_code_testiedNext,type_comment,vsync_rate,webaudio,webcam,width
DEBUGV2,08ZkLA5WoD0KIefFUcFP,,False,,,2,r,,,,,,T_target,3,,1728,DEBUGV2,1 (1716).jpg,0.0-7.0-2.0-0.3,0,True,True,0,,True,True,False,True,True,False,3,3,0,7,0,,,1,,,,,,,,,images/1 (1716).jpg,B,B,,4,4,0,,DEBUGV2,,,initial_study,17,17,0,305,23468,0.40,162,image-keyboard-response,1,1,0,"current target, not in next trial",,,,2562
DEBUGV2,0FRxK9GxPN93KjZQOR6B,,False,,,2,r,,,,,,T_target,3,,1728,DEBUGV2,1 (352).jpg,0.0-14.0-2.0-0.23,0,False,True,0,,True,True,False,True,True,False,10,10,0,,0,,,1,,,,,,,,,images/1 (352).jpg,B,B,,24,24,0,,DEBUGV2,,,initial_study,17,17,0,0,32420,0.55,714,image-keyboard-response,1,1,0,"current target, not in next trial",,,,2562
DEBUGV2,0QS50keWES8G8VAqwrIT,,False,,,2,r,,,,,,T_target,3,,1728,DEBUGV2,1 (752).jpg,0.0-12.0-2.0-0.29,0,False,True,0,,True,True,False,True,True,False,8,8,0,,0,,,1,,,,,,,,,images/1 (752).jpg,B,B,,30,30,0,,DEBUGV2,,,initial_study,11,11,0,0,29992,0.51,568,image-keyboard-response,1,1,0,"current target, not in next trial",,,,2562
DEBUGV2,0YuqJx9q5OnRp6DU2wuW,0,False,,,2,r,False,False,,,f,T_foil,3,,1728,DEBUGV2,1 (1963).jpg,0.0-12.0-10.0-0.3,0,True,True,0,False,False,False,False,True,True,False,8,8,False,4,0,,,1,,,,0,,,,,images/1 (1963).jpg,Fn+1,Fn,,0,0,0,,DEBUGV2,,,initialTest_response,4,4,0,165,30239,0.51,586,image-keyboard-response,0,1,0,"tested only, not in next trial",,,,2562
DEBUGV2,0uAd2GDH4HKs1rx9EcmR,,False,,,2,r,,,,,,T_target,3,,1728,DEBUGV2,1 (1367).jpg,0.0-14.0-2.0-0.18,0,True,True,0,,True,True,False,True,True,False,10,10,0,6,0,,,1,,,,,,,,,images/1 (1367).jpg,B,B,,19,19,0,,DEBUGV2,,,initial_study,2,2,0,258,32366,0.55,709,image-keyboard-response,1,1,0,"current target, not in next trial",,,,2562
DEBUGV2,0wliIq76Um5hKrBeEUDU,,,,,2,r,False,,,45,,,3,,1728,DEBUGV2,,0.0-8.0-6.0-0.0-0.0,0,,,0,,,,,,,,,,,,,,,,,,,,"{'answer': 'Skipped after 0.01 seconds', 'question': ""Please enter the sum using your number keyboard <p>Press 'enter' to continue.</p>""}",Please enter the sum using your number keyboard <p>Press 'enter' to continue.</p>,,,,,,,,,,,DEBUGV2,,,answer_counting,,,,,25149,0.43,275,survey-text,,,,,,,,2562
DEBUGV2,0x3JHfH4kNarTc8T0XOa,,True,,,2,r,,,,,,T_target,3,,1728,DEBUGV2,1 (1739).jpg,0.0-14.0-2.0-0.24,0,True,True,0,,True,True,False,True,True,False,10,10,0,4,0,,,1,,,,,,,,,images/1 (1739).jpg,Dn+1,Dn,,25,25,0,,DEBUGV2,,,initial_study,24,24,0,180,32432,0.55,715,image-keyboard-response,1,1,1,"current target, in next trial",,,,2562
DEBUGV2,0z1OsheENJZ0dime3rsZ,0,False,,,2,r,False,False,,,j,T_target,3,,1728,DEBUGV2,1 (577).jpg,0.0-9.0-10.0-0.11,0,False,True,0,False,True,True,False,True,True,False,5,5,False,,0,,,1,,,,0,,,,,images/1 (577).jpg,B,B,,21,21,0,,DEBUGV2,,,initialTest_response,12,12,0,0,26672,0.46,366,image-keyboard-response,1,1,0,"current target, not in next trial",,,,2562
DEBUGV2,0ziALrMu1KKaLFpszADN,,,,,2,r,False,,,49,,,3,,1728,DEBUGV2,,0.0-6.0-6.0-0.0-0.0,0,,,0,,,,,,,,,,,,,,,,,,,,"{'answer': 'Skipped after 0.01 seconds', 'question': ""Please enter the sum using your number keyboard <p>Press 'enter' to continue.</p>""}",Please enter the sum using your number keyboard <p>Press 'enter' to continue.</p>,,,,,,,,,,,DEBUGV2,,,answer_counting,,,,,22695,0.39,123,survey-text,,,,,,,,2562
DEBUGV2,1060b2Z7TvGQzIhkautz,0,False,,,2,r,False,False,,,j,T_target,3,,1728,DEBUGV2,1 (1418).jpg,0.0-13.0-10.0-0.0,0,True,True,0,False,True,True,False,True,True,False,9,9,False,,0,,,1,,,,0,,,,,images/1 (1418).jpg,B,B,,11,11,0,,DEBUGV2,,,initialTest_response,1,1,0,23,31414,0.53,659,image-keyboard-response,1,1,0,"current target, not in next trial",,,,2562
DEBUGV2,129HeydxlT4bC4B4vh0J,0,True,,,2,r,False,False,,,f,T_foil,3,,1728,DEBUGV2,1 (1635).jpg,0.0-11.0-10.0-0.21,0,True,True,0,False,False,False,False,True,True,True,7,7,8,3,0,,,1,,,,0,,,,,images/1 (1635).jpg,Fnn+1,Fnn,,0,0,0,,DEBUGV2,,,initialTest_response,22,22,29,115,29410,0.50,528,image-keyboard-response,0,1,1,"tested only, in next trial",,,,2562
DEBUGV2,12guO5aoNzL9gcxlPszQ,,,,,2,r,False,,,54,,,3,,1728,DEBUGV2,,0.0-7.0-6.0-0.0-0.0,0,,,0,,,,,,,,,,,,,,,,,,,,"{'answer': 'Skipped after 0.01 seconds', 'question': ""Please enter the sum using your number keyboard <p>Press 'enter' to continue.</p>""}",Please enter the sum using your number keyboard <p>Press 'enter' to continue.</p>,,,,,,,,,,,DEBUGV2,,,answer_counting,,,,,23917,0.41,199,survey-text,,,,,,,,2562
DEBUGV2,15LZFfNgmaJOr81YRnMk,0,False,,,2,r,False,False,,,f,T_foil,3,,1728,DEBUGV2,1 (1087).jpg,0.0-10.0-10.0-0.26,0,True,True,0,False,False,False,False,True,True,False,6,6,False,1,0,,,1,,,,0,,,,,images/1 (1087).jpg,Fn+1,Fn,,0,0,0,,DEBUGV2,,,initialTest_response,27,27,0,26,28276,0.48,457,image-keyboard-response,0,1,0,"tested only, not in next trial",,,,2562
DEBUGV2,1JYFkTWtyKhGPq6TuadO,0,True,,,2,r,False,False,False,,f,T_foil,3,,1728,DEBUGV2,1 (2332).jpg,0.0-12.0-10.0-0.17,0,True,False,0,False,False,True,False,True,True,True,8,7,8,,0,,,2,,,,0,,,,,images/1 (2332).jpg,Dn,Dn,,0,15,0,,DEBUGV2,,,initialTest_response,18,15,18,44,30574,0.52,600,image-keyboard-response,1,1,1,"current target, in next trial, from last trial",,,,2562
DEBUGV2,1NmcaxixZlS1g3ymZgss,,False,,,2,r,,,,,,T_nontarget,3,,1728,DEBUGV2,1 (635).jpg,0.0-9.0-2.0-0.12,0,False,True,0,,True,True,False,False,False,False,5,5,0,,0,,,1,,,,,,,,,images/1 (635).jpg,A,A,,13,13,0,,DEBUGV2,,,initial_study,0,0,0,0,26053,0.44,323,image-keyboard-response,1,0,0,"studied only, not in trial",,,,2562
DEBUGV2,1O4HO5MDZhNJipoDd98k,0,False,,,2,r,False,False,,,j,T_target,3,,1728,DEBUGV2,1 (201).jpg,0.0-9.0-10.0-0.17,0,False,True,0,False,True,True,False,True,True,False,5,5,False,,0,,,1,,,,0,,,,,images/1 (201).jpg,B,B,,30,30,0,,DEBUGV2,,,initialTest_response,18,18,0,0,26807,0.46,372,image-keyboard-response,1,1,0,"current target, not in next trial",,,,2562
DEBUGV2,1WNGo8P51ltQfXgXpG5M,0,True,,,2,r,False,False,False,,f,T_foil,3,,1728,DEBUGV2,1 (1462).jpg,0.0-8.0-10.0-0.3,0,True,False,0,False,False,True,False,True,True,True,4,3,4,,0,,,2,,,,0,,,,,images/1 (1462).jpg,Dn,Dn,,0,12,0,,DEBUGV2,,,initialTest_response,4,12,4,384,25266,0.43,282,image-keyboard-response,1,1,1,"current target, in next trial, from last trial",,,,2562
DEBUGV2,1YHdODgVO9HuZkgGqDta,,False,,,2,r,,,,,,T_target,3,,1728,DEBUGV2,1 (639).jpg,0.0-9.0-2.0-0.19,0,False,True,0,,True,True,False,True,True,False,5,5,0,,0,,,1,,,,,,,,,images/1 (639).jpg,B,B,,20,20,0,,DEBUGV2,,,initial_study,3,3,0,0,26132,0.45,330,image-keyboard-response,1,1,0,"current target, not in next trial",,,,2562
DEBUGV2,1gP59mCqJxOOCnD1eREZ,,,,,2,r,,,,,,,3,,1728,DEBUGV2,,0.0-6.0-5.0-0.1,0,,,0,,,,,,,,2,,,,,,,,,2,,,,,,,7,,,7,,,,,DEBUGV2,,49,digitPresentation,,,,,22614,0.39,116,html-keyboard-response,,,,,,,,2562
DEBUGV2,1hCQaKPHrWmek67QjVeQ,0,False,,,2,r,False,False,,,j,T_target,3,,1728,DEBUGV2,1 (361).jpg,0.0-9.0-10.0-0.22,0,True,True,0,False,True,True,False,True,True,False,5,5,False,,0,,,1,,,,0,,,,,images/1 (361).jpg,B,B,,28,28,0,,DEBUGV2,,,initialTest_response,23,23,0,194,26931,0.46,377,image-keyboard-response,1,1,0,"current target, not in next trial",,,,2562
DEBUGV2,1n6RCcsdp6JMhar70S3p,,,,,2,r,,,,,,,3,,1728,DEBUGV2,,0.0-9.0-5.0-0.4,0,,,0,,,,,,,,5,,,,,,,,,5,,,,,,,4,,,4,,,,,DEBUGV2,,44,digitPresentation,,,,,26339,0.45,347,html-keyboard-response,,,,,,,,2562
DEBUGV2,1oXnDjldu8n8623jlalv,,,,,2,r,,,,,,,3,,1728,DEBUGV2,,0.0-7.0-5.0-0.3,0,,,0,,,,,,,,3,,,,,,,,,4,,,,,,,8,,,8,,,,,DEBUGV2,,54,digitPresentation,,,,,23859,0.41,194,html-keyboard-response,,,,,,,,2562
DEBUGV2,1tQDTj1xr48SafG7Q4Zb,0,False,,,2,r,False,False,,,j,T_target,3,,1728,DEBUGV2,1 (1348).jpg,0.0-7.0-10.0-0.6,0,True,True,0,False,True,True,False,True,True,False,3,3,False,,0,,,1,,,,0,,,,,images/1 (1348).jpg,B,B,,17,17,0,,DEBUGV2,,,initialTest_response,7,7,0,453,24100,0.41,209,image-keyboard-response,1,1,0,"current target, not in next trial",,,,2562
DEBUGV2,1y2fS2EF0dKAnhWvwkE5,0,False,,,2,r,False,False,,,f,T_foil,3,,1728,DEBUGV2,1 (1640).jpg,0.0-5.0-10.0-0.10,0,False,True,0,False,False,False,False,True,True,False,1,1,False,,0,,,1,,,,0,,,,,images/1 (1640).jpg,Fn+1,Fn,,0,0,0,,DEBUGV2,,,initialTest_response,11,11,0,0,21745,0.37,61,image-keyboard-response,0,1,0,"tested only, not in next trial",,,,2562
DEBUGV2,1zYJ8HUEhTAn91ED7fZj,,False,,,2,r,,,,,,T_target,3,,1728,DEBUGV2,1 (619).jpg,0.0-7.0-2.0-0.5,0,True,True,0,,True,True,False,True,True,False,3,3,0,7,0,,,1,,,,,,,,,images/1 (619).jpg,B,B,,6,6,0,,DEBUGV2,,,initial_study,23,23,0,329,23502,0.40,164,image-keyboard-response,1,1,0,"current target, not in next trial",,,,2562
DEBUGV2,26wxj04ADaTodwHAMUQm,0,True,,,2,r,False,False,,,f,T_foil,3,,1728,DEBUGV2,1 (1408).jpg,0.0-7.0-10.0-0.17,0,True,True,0,False,False,False,False,True,True,True,3,3,4,4,0,,,1,,,,0,,,,,images/1 (1408).jpg,Fnn+1,Fnn,,0,0,0,,DEBUGV2,,,initialTest_response,18,18,14,201,24352,0.42,220,image-keyboard-response,0,1,1,"tested only, in next trial",,,,2562
DEBUGV2,2B05wCnjcBpEmGoexqgT,0,False,,,2,r,False,False,,,j,T_target,3,,1728,DEBUGV2,1 (676).jpg,0.0-11.0-10.0-0.0,0,True,True,0,False,True,True,False,True,True,False,7,7,False,,0,,,1,,,,0,,,,,images/1 (676).jpg,B,B,,21,21,0,,DEBUGV2,,,initialTest_response,1,1,0,354,28929,0.49,507,image-keyboard-response,1,1,0,"current target, not in next trial",,,,2562
DEBUGV2,2Ccc4DhJPGaGfqxFVFDQ,,False,,,2,r,,,,,,T_target,3,,1728,DEBUGV2,1 (2279).jpg,0.0-14.0-2.0-0.2,0,False,True,0,,True,True,False,True,True,False,10,10,0,,0,,,1,,,,,,,,,images/1 (2279).jpg,B,B,,3,3,0,,DEBUGV2,,,initial_study,28,28,0,0,32159,0.55,693,image-keyboard-response,1,1,0,"current target, not in next trial",,,,2562
DEBUGV2,2Eqf2Or9yk7aPix3bUe0,0,True,,,2,r,False,False,,,j,T_target,3,,1728,DEBUGV2,1 (278).jpg,0.0-10.0-10.0-0.6,0,True,True,0,False,True,True,False,True,True,True,6,6,7,,0,,,1,,,,0,,,,,images/1 (278).jpg,Dn+1,Dn,,23,23,0,,DEBUGV2,,,initialTest_response,7,7,25,383,27808,0.47,437,image-keyboard-response,1,1,1,"current target, in next trial",,,,2562
DEBUGV2,2GVkBA6b2FdRh4buCwkf,,False,,,2,r,,,,,,T_nontarget,3,,1728,DEBUGV2,1 (2286).jpg,0.0-9.0-2.0-0.10,0,False,True,0,,True,True,False,False,False,False,5,5,0,,0,,,1,,,,,,,,,images/1 (2286).jpg,A,A,,11,11,0,,DEBUGV2,,,initial_study,0,0,0,0,26031,0.44,321,image-keyboard-response,1,0,0,"studied only, not in trial",,,,2562
DEBUGV2,2RsdhfLm4gaxACs44224,,True,,,2,r,,,,,,T_target,3,,1728,DEBUGV2,1 (204).jpg,0.0-8.0-2.0-0.23,0,True,True,0,,True,True,False,True,True,True,4,4,5,10,0,,,1,,,,,,,,,images/1 (204).jpg,Dn+1,Dn,,24,24,0,,DEBUGV2,,,initial_study,13,13,9,479,24954,0.43,258,image-keyboard-response,1,1,1,"current target, in next trial",,,,2562
DEBUGV2,2XR7zsMUMutgxL33a4Kk,0,False,,,2,r,False,False,,,j,T_target,3,,1728,DEBUGV2,1 (1282).jpg,0.0-11.0-10.0-0.5,0,True,True,0,False,True,True,False,True,True,False,7,7,False,,0,,,1,,,,0,,,,,images/1 (1282).jpg,B,B,,2,2,0,,DEBUGV2,,,initialTest_response,6,6,0,468,29039,0.49,512,image-keyboard-response,1,1,0,"current target, not in next trial",,,,2562
DEBUGV2,2Xsw3JgPYSzBfaZ83bwv,,True,,,2,r,,,,,,T_target,3,,1728,DEBUGV2,1 (674).jpg,0.0-6.0-2.0-0.8,0,False,True,0,,True,True,False,True,True,True,2,2,3,,0,,,1,,,,,,,,,images/1 (674).jpg,Dn+1,Dn,,9,9,0,,DEBUGV2,,,initial_study,1,1,30,0,22321,0.38,91,image-keyboard-response,1,1,1,"current target, in next trial",,,,2562
DEBUGV2,2aPzB2dOCpavlp1WwknF,,,,,2,r,,,,,,,3,,1728,DEBUGV2,,0.0-12.0-5.0-0.7,0,,,0,,,,,,,,8,,,,,,,,,8,,,,,,,6,,,6,,,,,DEBUGV2,,60,digitPresentation,,,,,30105,0.51,578,html-keyboard-response,,,,,,,,2562
DEBUGV2,2hV43409wFnsrkeeZKaX,,False,,,2,r,,,,,,T_target,3,,1728,DEBUGV2,1 (577).jpg,0.0-9.0-2.0-0.20,0,False,True,0,,True,True,False,True,True,False,5,5,0,,0,,,1,,,,,,,,,images/1 (577).jpg,B,B,,21,21,0,,DEBUGV2,,,initial_study,12,12,0,0,26143,0.45,331,image-keyboard-response,1,1,0,"current target, not in next trial",,,,2562
DEBUGV2,2hV9oUiCXZKPMhnYKfZs,,,,,2,r,,,,,,,3,,1728,DEBUGV2,,0.0-7.0-5.0-0.6,0,,,0,,,,,,,,3,,,,,,,,,7,,,,,,,7,,,7,,,,,DEBUGV2,,54,digitPresentation,,,,,23892,0.41,197,html-keyboard-response,,,,,,,,2562
DEBUGV2,2nCfGGJ659N57cKUezZy,0,False,,,2,r,False,False,,,j,T_target,3,,1728,DEBUGV2,1 (1779).jpg,0.0-11.0-10.0-0.23,0,True,True,0,False,True,True,False,True,True,False,7,7,False,,0,,,1,,,,0,,,,,images/1 (1779).jpg,B,B,,3,3,0,,DEBUGV2,,,initialTest_response,24,24,0,408,29457,0.50,530,image-keyboard-response,1,1,0,"current target, not in next trial",,,,2562
DEBUGV2,2o6APB6bRVbv81hqyLAl,,,,,2,r,,,,,,,3,,1728,DEBUGV2,,0.0-8.0-5.0-0.4,0,,,0,,,,,,,,4,,,,,,,,,5,,,,,,,7,,,7,,,,,DEBUGV2,,45,digitPresentation,,,,,25099,0.43,271,html-keyboard-response,,,,,,,,2562
DEBUGV2,2xRMKKl2I58XdxasQlDe,,True,,,2,r,,,,,,T_target,3,,1728,DEBUGV2,1 (1809).jpg,0.0-7.0-2.0-0.22,0,True,True,0,,True,True,False,True,True,True,3,3,4,6,0,,,1,,,,,,,,,images/1 (1809).jpg,Dn+1,Dn,,23,23,0,,DEBUGV2,,,initial_study,27,27,5,257,23710,0.41,181,image-keyboard-response,1,1,1,"current target, in next trial",,,,2562
DEBUGV2,32vK8gh5P7LrYVP9uqiq,,,,,2,r,,,,,,,3,,1728,DEBUGV2,,0.0-7.0-5.0-0.2,0,,,0,,,,,,,,3,,,,,,,,,3,,,,,,,6,,,6,,,,,DEBUGV2,,54,digitPresentation,,,,,23848,0.41,193,html-keyboard-response,,,,,,,,2562
DEBUGV2,35KxuHSE21TKVBOYNVqE,0,False,,,2,r,False,False,,,j,T_target,3,,1728,DEBUGV2,1 (139).jpg,0.0-10.0-10.0-0.14,0,True,True,0,False,True,True,False,True,True,False,6,6,False,,0,,,1,,,,0,,,,,images/1 (139).jpg,B,B,,15,15,0,,DEBUGV2,,,initialTest_response,15,15,0,319,28000,0.48,445,image-keyboard-response,1,1,0,"current target, not in next trial",,,,2562
DEBUGV2,37vvx92zMgUMRo1qTXxm,0,True,,,2,r,False,False,,,f,T_foil,3,,1728,DEBUGV2,1 (2255).jpg,0.0-14.0-10.0-0.4,0,True,True,0,False,False,False,False,True,True,False,10,10,0,7,0,,,1,,,,0,,,,,images/1 (2255).jpg,Fnn+1,Fnn,,0,0,0,,DEBUGV2,,,initialTest_response,5,5,0,338,32754,0.56,739,image-keyboard-response,0,1,1,"tested only, in next trial",,,,2562
DEBUGV2,39P6qucWRfhn81K6oC3f,,False,,,2,r,,,,,,T_target,3,,1728,DEBUGV2,1 (714).jpg,0.0-13.0-2.0-0.23,0,False,True,0,,True,True,False,True,True,False,9,9,0,,0,,,1,,,,,,,,,images/1 (714).jpg,B,B,,24,24,0,,DEBUGV2,,,initial_study,2,2,0,0,31178,0.53,638,image-keyboard-response,1,1,0,"current target, not in next trial",,,,2562
DEBUGV2,3BtVxtrwQV7m39FxwHrn,,,,,2,r,,,,,,,3,,1728,DEBUGV2,,0.0-6.0-4.0-0.0,0,,,0,,,,,,,,,,,,,,,,,,,,,,,,"<div style=""font-size:60px;"">+</div>",,,,,,,,DEBUGV2,,,fixation,,,,,22592,0.39,114,html-keyboard-response,,,,,,,,2562
DEBUGV2,3CzTMcE7WXG1ztMi8tjv,0,False,,,2,r,False,False,,,j,T_target,3,,1728,DEBUGV2,1 (2398).jpg,0.0-11.0-10.0-0.4,0,True,True,0,False,True,True,False,True,True,False,7,7,False,,0,,,1,,,,0,,,,,images/1 (2398).jpg,B,B,,25,25,0,,DEBUGV2,,,initialTest_response,5,5,0,35,29017,0.49,511,image-keyboard-response,1,1,0,"current target, not in next trial",,,,2562
DEBUGV2,3GFloVFADVIv7s1uJrgY,,False,,,2,r,,,,,,T_nontarget,3,,1728,DEBUGV2,1 (2109).jpg,0.0-5.0-2.0-0.27,0,False,True,0,,True,True,False,False,False,False,1,1,0,,0,,,1,,,,,,,,,images/1 (2109).jpg,A,A,,28,28,0,,DEBUGV2,,,initial_study,0,0,0,0,21327,0.37,34,image-keyboard-response,1,0,0,"studied only, not in trial",,,,2562
DEBUGV2,3PIbNl9FunJejRp3MHuC,,False,,,2,r,,,,,,T_target,3,,1728,DEBUGV2,1 (2090).jpg,0.0-12.0-2.0-0.27,0,True,True,0,,True,True,False,True,True,False,8,8,0,1,0,,,1,,,,,,,,,images/1 (2090).jpg,B,B,,28,28,0,,DEBUGV2,,,initial_study,10,10,0,1,29968,0.51,566,image-keyboard-response,1,1,0,"current target, not in next trial",,,,2562
DEBUGV2,3TOKmlnIUVhUybI6i6hI,,False,,,2,r,,,,,,T_nontarget,3,,1728,DEBUGV2,1 (1350).jpg,0.0-11.0-2.0-0.16,0,True,True,0,,True,True,False,False,False,False,7,7,0,2,0,,,1,,,,,,,,,images/1 (1350).jpg,A,A,,17,17,0,,DEBUGV2,,,initial_study,0,0,0,89,28596,0.49,479,image-keyboard-response,1,0,0,"studied only, not in trial",,,,2562
DEBUGV2,3ipsrRMRCqFvdfeIbikZ,0,True,,,2,r,False,,False,,f,T_foil,3,,1728,DEBUGV2,1 (2181).jpg,0.0-10.0-10.0-0.0,0,True,False,0,False,False,True,False,True,False,True,6,5,6,,0,,,2,,,,0,,,,,images/1 (2181).jpg,Cn,Cn,,0,1,0,,DEBUGV2,,,initialTest_response,1,0,1,416,27662,0.47,431,image-keyboard-response,1,0,1,"studied only, in next trial, from last trial",,,,2562
DEBUGV2,3lfMKUQPYlO7VY5Duorr,,False,,,2,r,,,,,,T_target,3,,1728,DEBUGV2,1 (384).jpg,0.0-8.0-2.0-0.17,0,True,True,0,,True,True,False,True,True,False,4,4,0,2,0,,,1,,,,,,,,,images/1 (384).jpg,B,B,,18,18,0,,DEBUGV2,,,initial_study,2,2,0,101,24879,0.43,252,image-keyboard-response,1,1,0,"current target, not in next trial",,,,2562
DEBUGV2,3lugGVQseoejlJUZOCxU,0,False,,,2,r,False,False,,,j,T_target,3,,1728,DEBUGV2,1 (2081).jpg,0.0-6.0-10.0-0.27,0,False,True,0,False,True,True,False,True,True,False,2,2,False,,0,,,1,,,,0,,,,,images/1 (2081).jpg,B,B,,27,27,0,,DEBUGV2,,,initialTest_response,28,28,0,0,23350,0.40,154,image-keyboard-response,1,1,0,"current target, not in next trial",,,,2562
DEBUGV2,3pZntRHVVyGnGf7BO9Jm,,False,,,2,r,,,,,,T_nontarget,3,,1728,DEBUGV2,1 (1003).jpg,0.0-5.0-2.0-0.22,0,True,True,0,,True,True,False,False,False,False,1,1,0,3,0,,,1,,,,,,,,,images/1 (1003).jpg,A,A,,23,23,0,,DEBUGV2,,,initial_study,0,0,0,153,21251,0.36,29,image-keyboard-response,1,0,0,"studied only, not in trial",,,,2562
DEBUGV2,3sI1Lmc4H7djy9qHAjFh,0,True,,,2,r,False,False,False,,f,T_foil,3,,1728,DEBUGV2,1 (371).jpg,0.0-7.0-10.0-0.20,0,True,False,0,False,False,False,False,True,False,True,3,2,3,,0,,,2,,,,0,,,,,images/1 (371).jpg,Fnn,Fnn,,0,0,0,,DEBUGV2,,,initialTest_response,21,0,21,303,24420,0.42,223,image-keyboard-response,0,1,1,"tested only, in next trial, from last trial",,,,2562
DEBUGV2,3uAJmr5cSimQEIo8YxZ3,0,True,,,2,r,False,False,,,f,T_foil,3,,1728,DEBUGV2,1 (963).jpg,0.0-10.0-10.0-0.17,0,False,True,0,False,False,False,False,True,True,True,6,6,7,,0,,,1,,,,0,,,,,images/1 (963).jpg,Fnn+1,Fnn,,0,0,0,,DEBUGV2,,,initialTest_response,18,18,8,0,28067,0.48,448,image-keyboard-response,0,1,1,"tested only, in next trial",,,,2562
DEBUGV2,3xJOenVACCYQFz3OWSY6,,,,,2,r,,,,,,,3,,1728,DEBUGV2,,0.0-9.0-7.0-0.0,0,,,0,,,,,,,,,,,,,,,,,,,,,,,,<p background:white>INCORRECT!</p>,,,,,,,,DEBUGV2,,,promptfeedback,,,,,26396,0.45,352,html-keyboard-response,,,,,,,,2562
DEBUGV2,3yR9UTNwVwx8Ybsa9dbh,0,False,,,2,r,False,False,,,f,T_foil,3,,1728,DEBUGV2,1 (1749).jpg,0.0-5.0-10.0-0.25,0,True,True,0,False,False,False,False,True,True,False,1,1,False,9,0,,,1,,,,0,,,,,images/1 (1749).jpg,Fn+1,Fn,,0,0,0,,DEBUGV2,,,initialTest_response,26,26,0,407,22085,0.38,76,image-keyboard-response,0,1,0,"tested only, not in next trial",,,,2562
DEBUGV2,40Ujx18pnUpEsODZCABJ,0,False,,,2,r,False,False,,,f,T_foil,3,,1728,DEBUGV2,1 (1181).jpg,0.0-8.0-10.0-0.10,0,True,True,0,False,False,False,False,True,True,False,4,4,False,3,0,,,1,,,,0,,,,,images/1 (1181).jpg,Fn+1,Fn,,0,0,0,,DEBUGV2,,,initialTest_response,11,11,0,116,25419,0.43,289,image-keyboard-response,0,1,0,"tested only, not in next trial",,,,2562
DEBUGV2,44yr3QgUJqH8oPHvdXlo,,False,,,2,r,,,,,,T_nontarget,3,,1728,DEBUGV2,1 (633).jpg,0.0-14.0-2.0-0.22,0,True,True,0,,True,True,False,False,False,False,10,10,0,3,0,,,1,,,,,,,,,images/1 (633).jpg,A,A,,23,23,0,,DEBUGV2,,,initial_study,0,0,0,133,32408,0.55,713,image-keyboard-response,1,0,0,"studied only, not in trial",,,,2562
DEBUGV2,48NeArXGkGor0HSGdMCV,,False,,,2,r,,,,,,T_target,3,,1728,DEBUGV2,1 (1767).jpg,0.0-6.0-2.0-0.14,0,False,True,0,,True,True,False,True,True,False,2,2,0,,0,,,1,,,,,,,,,images/1 (1767).jpg,B,B,,15,15,0,,DEBUGV2,,,initial_study,9,9,0,0,22390,0.38,97,image-keyboard-response,1,1,0,"current target, not in next trial",,,,2562
DEBUGV2,4CcN4gWiLEmGvS12zQdK,0,True,,,2,r,False,False,False,,f,T_foil,3,,1728,DEBUGV2,1 (2159).jpg,0.0-9.0-10.0-0.29,0,True,False,0,False,False,False,False,True,False,True,5,4,5,,0,,,2,,,,0,,,,,images/1 (2159).jpg,Fnn,Fnn,,0,0,0,,DEBUGV2,,,initialTest_response,30,0,30,273,27090,0.46,384,image-keyboard-response,0,1,1,"tested only, in next trial, from last trial",,,,2562
DEBUGV2,4F5ylLP7CBYRjRxZOtDQ,,False,,,2,r,,,,,,T_nontarget,3,,1728,DEBUGV2,1 (551).jpg,0.0-6.0-2.0-0.11,0,False,True,0,,True,True,False,False,False,False,2,2,0,,0,,,1,,,,,,,,,images/1 (551).jpg,A,A,,12,12,0,,DEBUGV2,,,initial_study,0,0,0,0,22356,0.38,94,image-keyboard-response,1,0,0,"studied only, not in trial",,,,2562
DEBUGV2,4Jy2jSJTuer6N0nop3D0,,False,,,2,r,,,,,,T_target,3,,1728,DEBUGV2,1 (1341).jpg,0.0-10.0-2.0-0.7,0,True,True,0,,True,True,False,True,True,False,6,6,0,3,0,,,1,,,,,,,,,images/1 (1341).jpg,B,B,,8,8,0,,DEBUGV2,,,initial_study,28,28,0,118,27214,0.46,394,image-keyboard-response,1,1,0,"current target, not in next trial",,,,2562
DEBUGV2,4KLpTlDgD1p1aJTRV9b8,,,,,2,r,,,,,,,3,,1728,DEBUGV2,,0.0-14.0-5.0-0.5,0,,,0,,,,,,,,10,,,,,,,,,6,,,,,,,9,,,9,,,,,DEBUGV2,,56,digitPresentation,,,,,32586,0.55,728,html-keyboard-response,,,,,,,,2562
DEBUGV2,4dHQXwaTZ2E6iAcOtzh8,,False,,,2,r,,,,,,T_nontarget,3,,1728,DEBUGV2,1 (1730).jpg,0.0-6.0-2.0-0.4,0,True,True,0,,True,True,False,False,False,False,2,2,0,4,0,,,1,,,,,,,,,images/1 (1730).jpg,A,A,,5,5,0,,DEBUGV2,,,initial_study,0,0,0,176,22275,0.38,87,image-keyboard-response,1,0,0,"studied only, not in trial",,,,2562
DEBUGV2,4qHJM93dnDMRPg910gIh,0,False,,,2,r,False,False,,,j,T_target,3,,1728,DEBUGV2,1 (1973).jpg,0.0-6.0-10.0-0.21,0,True,True,0,False,True,True,False,True,True,False,2,2,False,,0,,,1,,,,0,,,,,images/1 (1973).jpg,B,B,,21,21,0,,DEBUGV2,,,initialTest_response,22,22,0,74,23212,0.40,148,image-keyboard-response,1,1,0,"current target, not in next trial",,,,2562
DEBUGV2,4xJgXfWMhppoG6wVYWdx,,False,,,2,r,,,,,,T_nontarget,3,,1728,DEBUGV2,1 (2233).jpg,0.0-10.0-2.0-0.12,0,False,True,0,,True,True,False,False,False,False,6,6,0,,0,,,1,,,,,,,,,images/1 (2233).jpg,A,A,,13,13,0,,DEBUGV2,,,initial_study,0,0,0,0,27276,0.47,399,image-keyboard-response,1,0,0,"studied only, not in trial",,,,2562
DEBUGV2,4xk1Y1C1w6MltUziUw6O,,False,,,2,r,,,,,,T_target,3,,1728,DEBUGV2,1 (1483).jpg,0.0-14.0-2.0-0.5,0,True,True,0,,True,True,False,True,True,False,10,10,0,2,0,,,1,,,,,,,,,images/1 (1483).jpg,B,B,,6,6,0,,DEBUGV2,,,initial_study,30,30,0,67,32203,0.55,696,image-keyboard-response,1,1,0,"current target, not in next trial",,,,2562
DEBUGV2,54OILXY37b10RyzWxGIB,0,False,,,2,r,False,False,,,f,T_foil,3,,1728,DEBUGV2,1 (1868).jpg,0.0-13.0-10.0-0.19,0,False,True,0,False,False,False,False,True,True,False,9,9,False,,0,,,1,,,,0,,,,,images/1 (1868).jpg,Fn+1,Fn,,0,0,0,,DEBUGV2,,,initialTest_response,20,20,0,0,31850,0.54,678,image-keyboard-response,0,1,0,"tested only, not in next trial",,,,2562
DEBUGV2,586tko9q7wFCnipNsmDL,,,,,2,r,,,,,,,3,,1728,DEBUGV2,,0.0-14.0-5.0-0.6,0,,,0,,,,,,,,10,,,,,,,,,7,,,,,,,7,,,7,,,,,DEBUGV2,,56,digitPresentation,,,,,32597,0.55,729,html-keyboard-response,,,,,,,,2562
DEBUGV2,59TP4cKwbgRUtHLuEq6Q,0,False,,,2,r,False,False,,,f,T_foil,3,,1728,DEBUGV2,1 (2087).jpg,0.0-5.0-10.0-0.28,0,True,True,0,False,False,False,False,True,True,False,1,1,False,9,0,,,1,,,,0,,,,,images/1 (2087).jpg,Fn+1,Fn,,0,0,0,,DEBUGV2,,,initialTest_response,29,29,0,444,22153,0.38,79,image-keyboard-response,0,1,0,"tested only, not in next trial",,,,2562
DEBUGV2,5K3sPwchitzDHeK9xcWl,0,True,,,2,r,False,False,False,,f,T_foil,3,,1728,DEBUGV2,1 (1349).jpg,0.0-11.0-10.0-0.15,0,True,False,0,False,False,False,False,True,False,True,7,6,7,,0,,,2,,,,0,,,,,images/1 (1349).jpg,Fnn,Fnn,,0,0,0,,DEBUGV2,,,initialTest_response,16,0,16,179,29267,0.50,522,image-keyboard-response,0,1,1,"tested only, in next trial, from last trial",,,,2562
DEBUGV2,5RlRaOfNmzxKYmomODJI,,True,,,2,r,,,,,,T_target,3,,1728,DEBUGV2,1 (123).jpg,0.0-13.0-2.0-0.7,0,True,True,0,,True,True,False,True,True,True,9,9,10,9,0,,,1,,,,,,,,,images/1 (123).jpg,Dn+1,Dn,,8,8,0,,DEBUGV2,,,initial_study,11,11,13,398,30984,0.53,622,image-keyboard-response,1,1,1,"current target, in next trial",,,,2562
DEBUGV2,5VyoZyUgm9yIHFcZ3DCo,0,True,,,2,r,False,False,,,f,T_foil,3,,1728,DEBUGV2,1 (498).jpg,0.0-12.0-10.0-0.12,0,True,True,0,False,False,False,False,True,True,True,8,8,9,10,0,,,1,,,,0,,,,,images/1 (498).jpg,Fnn+1,Fnn,,0,0,0,,DEBUGV2,,,initialTest_response,13,13,22,469,30455,0.52,595,image-keyboard-response,0,1,1,"tested only, in next trial",,,,2562
DEBUGV2,5XFySBTPP4EgPAcWZkrQ,,False,,,2,r,,,,,,T_nontarget,3,,1728,DEBUGV2,1 (2254).jpg,0.0-10.0-2.0-0.1,0,True,True,0,,True,True,False,False,False,False,6,6,0,7,0,,,1,,,,,,,,,images/1 (2254).jpg,A,A,,2,2,0,,DEBUGV2,,,initial_study,0,0,0,309,27145,0.46,388,image-keyboard-response,1,0,0,"studied only, not in trial",,,,2562
DEBUGV2,5XzinWIKEscOMtzMMPvW,0,True,,,2,r,False,False,False,,f,T_foil,3,,1728,DEBUGV2,1 (204).jpg,0.0-9.0-10.0-0.8,0,True,False,0,False,False,True,False,True,True,True,5,4,5,,0,,,2,,,,0,,,,,images/1 (204).jpg,Dn,Dn,,0,24,0,,DEBUGV2,,,initialTest_response,9,24,9,479,26608,0.45,363,image-keyboard-response,1,1,1,"current target, in next trial, from last trial",,,,2562
DEBUGV2,5dGjNjUiZWxyE36mlkLw,,False,,,2,r,,,,,,T_nontarget,3,,1728,DEBUGV2,1 (1274).jpg,0.0-7.0-2.0-0.19,0,True,True,0,,True,True,False,False,False,False,3,3,0,4,0,,,1,,,,,,,,,images/1 (1274).jpg,A,A,,20,20,0,,DEBUGV2,,,initial_study,0,0,0,202,23675,0.41,178,image-keyboard-response,1,0,0,"studied only, not in trial",,,,2562
DEBUGV2,5dm6tXbFKwYWS7AoVggG,,False,,,2,r,,,,,,T_nontarget,3,,1728,DEBUGV2,1 (2001).jpg,0.0-5.0-2.0-0.3,0,True,True,0,,True,True,False,False,False,False,1,1,0,10,0,,,1,,,,,,,,,images/1 (2001).jpg,A,A,,4,4,0,,DEBUGV2,,,initial_study,0,0,0,447,21028,0.36,10,image-keyboard-response,1,0,0,"studied only, not in trial",,,,2562
DEBUGV2,5j0TyoyJcWfePUF6o2ax,,,,,2,r,,,,,,,3,,1728,DEBUGV2,,0.0-12.0-7.0-0.0,0,,,0,,,,,,,,,,,,,,,,,,,,,,,,<p background:white>INCORRECT!</p>,,,,,,,,DEBUGV2,,,promptfeedback,,,,,30132,0.51,580,html-keyboard-response,,,,,,,,2562
DEBUGV2,5kilzgOGSnK1UFbmaaQX,,False,,,2,r,,,,,,T_nontarget,3,,1728,DEBUGV2,1 (1835).jpg,0.0-10.0-2.0-0.6,0,True,True,0,,True,True,False,False,False,False,6,6,0,7,0,,,1,,,,,,,,,images/1 (1835).jpg,A,A,,7,7,0,,DEBUGV2,,,initial_study,0,0,0,322,27202,0.46,393,image-keyboard-response,1,0,0,"studied only, not in trial",,,,2562
DEBUGV2,5xrXwQKSfWSnTGIaLNeD,0,False,,,2,r,False,False,,,f,T_foil,3,,1728,DEBUGV2,1 (301).jpg,0.0-14.0-10.0-0.8,0,True,True,0,False,False,False,False,True,True,False,10,10,0,2,0,,,1,,,,0,,,,,images/1 (301).jpg,Fn+1,Fn,,0,0,0,,DEBUGV2,,,initialTest_response,9,9,0,70,32843,0.56,743,image-keyboard-response,0,1,0,"tested only, not in next trial",,,,2562
DEBUGV2,65Dfvl2rIftVfsER7rZZ,0,True,,,2,r,False,False,,,f,T_foil,3,,1728,DEBUGV2,1 (1487).jpg,0.0-9.0-10.0-0.19,0,True,True,0,False,False,False,False,True,True,True,5,5,6,10,0,,,1,,,,0,,,,,images/1 (1487).jpg,Fnn+1,Fnn,,0,0,0,,DEBUGV2,,,initialTest_response,20,20,21,484,26862,0.46,374,image-keyboard-response,0,1,1,"tested only, in next trial",,,,2562
DEBUGV2,66sFU1Qnpfg6vycHqTi2,0,False,,,2,r,False,False,,,f,T_foil,3,,1728,DEBUGV2,1 (900).jpg,0.0-12.0-10.0-0.5,0,False,True,0,False,False,False,False,True,True,False,8,8,False,,0,,,1,,,,0,,,,,images/1 (900).jpg,Fn+1,Fn,,0,0,0,,DEBUGV2,,,initialTest_response,6,6,0,0,30296,0.52,588,image-keyboard-response,0,1,0,"tested only, not in next trial",,,,2562
DEBUGV2,67aCiZcBrcFNlQySAV8B,,False,,,2,r,,,,,,T_target,3,,1728,DEBUGV2,1 (1228).jpg,0.0-12.0-2.0-0.4,0,False,True,0,,True,True,False,True,True,False,8,8,0,,0,,,1,,,,,,,,,images/1 (1228).jpg,B,B,,5,5,0,,DEBUGV2,,,initial_study,23,23,0,0,29687,0.51,543,image-keyboard-response,1,1,0,"current target, not in next trial",,,,2562
DEBUGV2,6A99oqHi3Oaky11muthO,0,True,,,2,r,False,False,,,j,T_target,3,,1728,DEBUGV2,1 (822).jpg,0.0-10.0-10.0-0.13,0,False,True,0,False,True,True,False,True,True,True,6,6,7,,0,,,1,,,,0,,,,,images/1 (822).jpg,Dn+1,Dn,,30,30,0,,DEBUGV2,,,initialTest_response,14,14,28,0,27978,0.48,444,image-keyboard-response,1,1,1,"current target, in next trial",,,,2562
DEBUGV2,6OaGxJ8BMlz3YkDP8diP,0,False,,,2,r,False,False,,,j,T_target,3,,1728,DEBUGV2,1 (752).jpg,0.0-12.0-10.0-0.10,0,False,True,0,False,True,True,False,True,True,False,8,8,False,,0,,,1,,,,0,,,,,images/1 (752).jpg,B,B,,30,30,0,,DEBUGV2,,,initialTest_response,11,11,0,0,30410,0.52,593,image-keyboard-response,1,1,0,"current target, not in next trial",,,,2562
DEBUGV2,6RstP66XmTjXW3dNJbjZ,,True,,,2,r,,,,,,T_target,3,,1728,DEBUGV2,1 (176).jpg,0.0-9.0-2.0-0.3,0,True,True,0,,True,True,False,True,True,True,5,5,6,2,0,,,1,,,,,,,,,images/1 (176).jpg,Dn+1,Dn,,4,4,0,,DEBUGV2,,,initial_study,26,26,3,63,25940,0.44,314,image-keyboard-response,1,1,1,"current target, in next trial",,,,2562
DEBUGV2,6S6AtpTSGWxTo0GYZIz7,0,True,,,2,r,False,False,False,,f,T_foil,3,,1728,DEBUGV2,1 (595).jpg,0.0-12.0-10.0-0.27,0,False,False,0,False,False,True,False,True,True,True,8,7,8,,0,,,2,,,,0,,,,,images/1 (595).jpg,Dn,Dn,,0,26,0,,DEBUGV2,,,initialTest_response,28,26,28,0,30810,0.52,610,image-keyboard-response,1,1,1,"current target, in next trial, from last trial",,,,2562
DEBUGV2,6SCmsuUyJkWZe2LMrXTC,,False,,,2,r,,,,,,T_target,3,,1728,DEBUGV2,1 (2400).jpg,0.0-6.0-2.0-0.17,0,True,True,0,,True,True,False,True,True,False,2,2,0,10,0,,,1,,,,,,,,,images/1 (2400).jpg,B,B,,18,18,0,,DEBUGV2,,,initial_study,4,4,0,450,22422,0.38,100,image-keyboard-response,1,1,0,"current target, not in next trial",,,,2562
DEBUGV2,6YwrmAgVTClhPRXEU36D,,False,,,2,r,,,,,,T_target,3,,1728,DEBUGV2,1 (1237).jpg,0.0-10.0-2.0-0.17,0,True,True,0,,True,True,False,True,True,False,6,6,0,1,0,,,1,,,,,,,,,images/1 (1237).jpg,B,B,,18,18,0,,DEBUGV2,,,initial_study,12,12,0,42,27332,0.47,404,image-keyboard-response,1,1,0,"current target, not in next trial",,,,2562
DEBUGV2,6aWSK1vfzu08duZDti9k,,False,,,2,r,,,,,,T_nontarget,3,,1728,DEBUGV2,1 (62).jpg,0.0-11.0-2.0-0.3,0,True,True,0,,True,True,False,False,False,False,7,7,0,1,0,,,1,,,,,,,,,images/1 (62).jpg,A,A,,4,4,0,,DEBUGV2,,,initial_study,0,0,0,51,28440,0.48,466,image-keyboard-response,1,0,0,"studied only, not in trial",,,,2562
DEBUGV2,6jyWxaLtvq9yGHNuroOB,,False,,,2,r,,,,,,T_nontarget,3,,1728,DEBUGV2,1 (2319).jpg,0.0-13.0-2.0-0.21,0,True,True,0,,True,True,False,False,False,False,9,9,0,2,0,,,1,,,,,,,,,images/1 (2319).jpg,A,A,,22,22,0,,DEBUGV2,,,initial_study,0,0,0,99,31155,0.53,636,image-keyboard-response,1,0,0,"studied only, not in trial",,,,2562
DEBUGV2,6mIOVgiRMvBcNgl7W4Ln,0,True,,,2,r,False,,False,,f,T_foil,3,,1728,DEBUGV2,1 (1394).jpg,0.0-13.0-10.0-0.12,0,True,False,0,False,False,True,False,True,False,True,9,8,9,,0,,,2,,,,0,,,,,images/1 (1394).jpg,Cn,Cn,,0,29,0,,DEBUGV2,,,initialTest_response,13,0,13,371,31688,0.54,671,image-keyboard-response,1,0,1,"studied only, in next trial, from last trial",,,,2562
DEBUGV2,6uc53TbWQ5F0emMSmWYh,,,,,2,r,,,,,,,3,,1728,DEBUGV2,,0.0-11.0-5.0-0.4,0,,,0,,,,,,,,7,,,,,,,,,5,,,,,,,6,,,6,,,,,DEBUGV2,,52,digitPresentation,,,,,28838,0.49,499,html-keyboard-response,,,,,,,,2562
DEBUGV2,78rUDvt9p89irw9xCzIT,0,False,,,2,r,False,False,,,j,T_target,3,,1728,DEBUGV2,1 (2353).jpg,0.0-7.0-10.0-0.13,0,False,True,0,False,True,True,False,True,True,False,3,3,False,,0,,,1,,,,0,,,,,images/1 (2353).jpg,B,B,,3,3,0,,DEBUGV2,,,initialTest_response,14,14,0,0,24266,0.41,216,image-keyboard-response,1,1,0,"current target, not in next trial",,,,2562
DEBUGV2,7IjfcNKc481WDpTOHcDB,,False,,,2,r,,,,,,T_nontarget,3,,1728,DEBUGV2,1 (382).jpg,0.0-10.0-2.0-0.4,0,True,True,0,,True,True,False,False,False,False,6,6,0,4,0,,,1,,,,,,,,,images/1 (382).jpg,A,A,,5,5,0,,DEBUGV2,,,initial_study,0,0,0,188,27179,0.46,391,image-keyboard-response,1,0,0,"studied only, not in trial",,,,2562
DEBUGV2,7PXhMAIaGhq80LWh9gjJ,,,,,2,r,,,,,,,3,,1728,DEBUGV2,,0.0-8.0-5.0-0.0,0,,,0,,,,,,,,4,,,,,,,,,1,,,,,,,5,,,5,,,,,DEBUGV2,,45,digitPresentation,,,,,25056,0.43,267,html-keyboard-response,,,,,,,,2562
DEBUGV2,7WYKC86P9byZhtgjGjw0,0,True,,,2,r,False,False,,,j,T_target,3,,1728,DEBUGV2,1 (183).jpg,0.0-5.0-10.0-0.21,0,True,True,0,False,True,True,False,True,True,True,1,1,2,,0,,,1,,,,0,,,,,images/1 (183).jpg,Dn+1,Dn,,9,9,0,,DEBUGV2,,,initialTest_response,22,22,8,107,21996,0.38,72,image-keyboard-response,1,1,1,"current target, in next trial",,,,2562
DEBUGV2,7Ze6uWyhsZycTQkcMDAv,,,,,2,r,,,,,,,3,,1728,DEBUGV2,,0.0-9.0-9.0-0.0,0,,,0,,,,,,,,,,,,,,,,,,,,,,,,"<div style=""font-size:60px;"">+</div>",,,,,,,,DEBUGV2,,,fixation,,,,,26418,0.45,354,html-keyboard-response,,,,,,,,2562
DEBUGV2,7aquqUvcT2v9M7ldzFEG,0,True,,,2,r,False,False,False,,f,T_foil,3,,1728,DEBUGV2,1 (2356).jpg,0.0-9.0-10.0-0.0,0,True,False,0,False,False,True,False,True,True,True,5,4,5,,0,,,2,,,,0,,,,,images/1 (2356).jpg,Dn,Dn,,0,3,0,,DEBUGV2,,,initialTest_response,1,3,1,350,26430,0.45,355,image-keyboard-response,1,1,1,"current target, in next trial, from last trial",,,,2562
DEBUGV2,7fsaWtNV9Ge8qchwBVUf,0,True,,,2,r,False,,False,,f,T_foil,3,,1728,DEBUGV2,1 (592).jpg,0.0-10.0-10.0-0.7,0,False,False,0,False,False,True,False,True,False,True,6,5,6,,0,,,2,,,,0,,,,,images/1 (592).jpg,Cn,Cn,,0,9,0,,DEBUGV2,,,initialTest_response,8,0,8,0,27844,0.47,438,image-keyboard-response,1,0,1,"studied only, in next trial, from last trial",,,,2562
DEBUGV2,7hN2Tt92lOY57qcgmzck,,False,,,2,r,,,,,,T_nontarget,3,,1728,DEBUGV2,1 (652).jpg,0.0-13.0-2.0-0.19,0,False,True,0,,True,True,False,False,False,False,9,9,0,,0,,,1,,,,,,,,,images/1 (652).jpg,A,A,,20,20,0,,DEBUGV2,,,initial_study,0,0,0,0,31132,0.53,634,image-keyboard-response,1,0,0,"studied only, not in trial",,,,2562
DEBUGV2,7i32swFKQdA6QPdxnboe,0,False,,,2,r,False,False,,,j,T_target,3,,1728,DEBUGV2,1 (1237).jpg,0.0-10.0-10.0-0.11,0,True,True,0,False,True,True,False,True,True,False,6,6,False,,0,,,1,,,,0,,,,,images/1 (1237).jpg,B,B,,18,18,0,,DEBUGV2,,,initialTest_response,12,12,0,42,27935,0.48,442,image-keyboard-response,1,1,0,"current target, not in next trial",,,,2562
DEBUGV2,7jaC1cDNTwEj0koUwX9q,0,True,,,2,r,False,False,False,,f,T_foil,3,,1728,DEBUGV2,1 (842).jpg,0.0-9.0-10.0-0.23,0,True,False,0,False,False,False,False,True,False,True,5,4,5,,0,,,2,,,,0,,,,,images/1 (842).jpg,Fnn,Fnn,,0,0,0,,DEBUGV2,,,initialTest_response,24,0,24,90,26954,0.46,378,image-keyboard-response,0,1,1,"tested only, in next trial, from last trial",,,,2562
DEBUGV2,7jyWMH0QaoNsBPQmjCZR,0,False,,,2,r,False,False,,,f,T_foil,3,,1728,DEBUGV2,1 (933).jpg,0.0-12.0-10.0-0.25,0,True,True,0,False,False,False,False,True,True,False,8,8,False,9,0,,,1,,,,0,,,,,images/1 (933).jpg,Fn+1,Fn,,0,0,0,,DEBUGV2,,,initialTest_response,26,26,0,401,30766,0.52,608,image-keyboard-response,0,1,0,"tested only, not in next trial",,,,2562
DEBUGV2,7nSGZyf94VsfBpvRvBNM,0,True,,,2,r,False,False,,,f,T_foil,3,,1728,DEBUGV2,1 (2079).jpg,0.0-7.0-10.0-0.4,0,True,True,0,False,False,False,False,True,True,True,3,3,4,4,0,,,1,,,,0,,,,,images/1 (2079).jpg,Fnn+1,Fnn,,0,0,0,,DEBUGV2,,,initialTest_response,5,5,24,162,24053,0.41,207,image-keyboard-response,0,1,1,"tested only, in next trial",,,,2562
DEBUGV2,7rDDvfg83fDr1gonJP9a,,False,,,2,r,,,,,,T_nontarget,3,,1728,DEBUGV2,1 (471).jpg,0.0-14.0-2.0-0.27,0,True,True,0,,True,True,False,False,False,False,10,10,0,5,0,,,1,,,,,,,,,images/1 (471).jpg,A,A,,28,28,0,,DEBUGV2,,,initial_study,0,0,0,208,32466,0.55,718,image-keyboard-response,1,0,0,"studied only, not in trial",,,,2562
DEBUGV2,7s2S03Za72Fho8h3Fed6,,True,,,2,r,,,,,,T_target,3,,1728,DEBUGV2,1 (1462).jpg,0.0-7.0-2.0-0.11,0,True,True,0,,True,True,False,True,True,True,3,3,4,8,0,,,1,,,,,,,,,images/1 (1462).jpg,Dn+1,Dn,,12,12,0,,DEBUGV2,,,initial_study,3,3,4,384,23570,0.40,170,image-keyboard-response,1,1,1,"current target, in next trial",,,,2562
DEBUGV2,7yQhVgamC6efhy5KmlyC,,True,,,2,r,,,,,,T_nontarget,3,,1728,DEBUGV2,1 (1772).jpg,0.0-14.0-2.0-0.0,0,True,True,0,,True,True,False,False,False,False,10,10,0,8,0,,,1,,,,,,,,,images/1 (1772).jpg,Cn+1,Cn,,1,1,0,,DEBUGV2,,,initial_study,0,0,0,372,32137,0.55,691,image-keyboard-response,1,0,1,"studied only, in next trial",,,,2562
DEBUGV2,81EsitOUGCyP4jDmqAlc,0,False,,,2,r,False,False,,,f,T_foil,3,,1728,DEBUGV2,1 (1740).jpg,0.0-11.0-10.0-0.12,0,False,True,0,False,False,False,False,True,True,False,7,7,False,,0,,,1,,,,0,,,,,images/1 (1740).jpg,Fn+1,Fn,,0,0,0,,DEBUGV2,,,initialTest_response,13,13,0,0,29192,0.50,519,image-keyboard-response,0,1,0,"tested only, not in next trial",,,,2562
DEBUGV2,8BiLPfI5WRmmSNnUpKU8,,,,,2,r,,,,,,,3,,1728,DEBUGV2,,0.0-11.0-7.0-0.0,0,,,0,,,,,,,,,,,,,,,,,,,,,,,,<p background:white>INCORRECT!</p>,,,,,,,,DEBUGV2,,,promptfeedback,,,,,28896,0.49,504,html-keyboard-response,,,,,,,,2562
DEBUGV2,8ErbepLw1wxr1S33TthR,0,False,,,2,r,False,False,,,f,T_foil,3,,1728,DEBUGV2,1 (1242).jpg,0.0-5.0-10.0-0.4,0,False,True,0,False,False,False,False,True,True,False,1,1,False,,0,,,1,,,,0,,,,,images/1 (1242).jpg,Fn+1,Fn,,0,0,0,,DEBUGV2,,,initialTest_response,5,5,0,0,21613,0.37,55,image-keyboard-response,0,1,0,"tested only, not in next trial",,,,2562
DEBUGV2,8MWrmyz2JZMmZoYKHtON,0,True,,,2,r,False,False,False,,f,T_foil,3,,1728,DEBUGV2,1 (205).jpg,0.0-10.0-10.0-0.28,0,False,False,0,False,False,False,False,True,False,True,6,5,6,,0,,,2,,,,0,,,,,images/1 (205).jpg,Fnn,Fnn,,0,0,0,,DEBUGV2,,,initialTest_response,29,0,29,0,28322,0.48,459,image-keyboard-response,0,1,1,"tested only, in next trial, from last trial",,,,2562
DEBUGV2,8UFH4WGWIS668R9NtXax,,False,,,2,r,,,,,,T_nontarget,3,,1728,DEBUGV2,1 (847).jpg,0.0-10.0-2.0-0.21,0,True,True,0,,True,True,False,False,False,False,6,6,0,2,0,,,1,,,,,,,,,images/1 (847).jpg,A,A,,22,22,0,,DEBUGV2,,,initial_study,0,0,0,94,27379,0.47,408,image-keyboard-response,1,0,0,"studied only, not in trial",,,,2562
DEBUGV2,8buXtg98pBX7gXkmtQOr,,True,,,2,r,,,,,,T_nontarget,3,,1728,DEBUGV2,1 (149).jpg,0.0-14.0-2.0-0.21,0,True,True,0,,True,True,False,False,False,False,10,10,0,10,0,,,1,,,,,,,,,images/1 (149).jpg,Cn+1,Cn,,22,22,0,,DEBUGV2,,,initial_study,0,0,0,486,32398,0.55,712,image-keyboard-response,1,0,1,"studied only, in next trial",,,,2562
DEBUGV2,8gp0qr37LFfRzRTO72uX,,,,,2,r,,,,,,,3,,1728,DEBUGV2,,0.0-14.0-4.0-0.0,0,,,0,,,,,,,,,,,,,,,,,,,,,,,,"<div style=""font-size:60px;"">+</div>",,,,,,,,DEBUGV2,,,fixation,,,,,32521,0.55,722,html-keyboard-response,,,,,,,,2562
DEBUGV2,8kQ5qMDus9zr8lJoyAAc,0,True,,,2,r,False,False,,,j,T_target,3,,1728,DEBUGV2,1 (1809).jpg,0.0-7.0-10.0-0.26,0,True,True,0,False,True,True,False,True,True,True,3,3,4,,0,,,1,,,,0,,,,,images/1 (1809).jpg,Dn+1,Dn,,23,23,0,,DEBUGV2,,,initialTest_response,27,27,5,257,24560,0.42,229,image-keyboard-response,1,1,1,"current target, in next trial",,,,2562
DEBUGV2,8rngAGoydON3YkDIFSbZ,,False,,,2,r,,,,,,T_nontarget,3,,1728,DEBUGV2,1 (297).jpg,0.0-13.0-2.0-0.22,0,True,True,0,,True,True,False,False,False,False,9,9,0,5,0,,,1,,,,,,,,,images/1 (297).jpg,A,A,,23,23,0,,DEBUGV2,,,initial_study,0,0,0,213,31167,0.53,637,image-keyboard-response,1,0,0,"studied only, not in trial",,,,2562
DEBUGV2,8v5cXP1Zcox59Pxdy4D5,0,True,,,2,r,False,False,,,f,T_foil,3,,1728,DEBUGV2,1 (252).jpg,0.0-5.0-10.0-0.19,0,True,True,0,False,False,False,False,True,True,True,1,1,2,10,0,,,1,,,,0,,,,,images/1 (252).jpg,Fnn+1,Fnn,,0,0,0,,DEBUGV2,,,initialTest_response,20,20,6,477,21952,0.38,70,image-keyboard-response,0,1,1,"tested only, in next trial",,,,2562
DEBUGV2,8wDJRH3G4PNSRxbv3f0s,0,False,,,2,r,False,False,,,j,T_target,3,,1728,DEBUGV2,1 (2090).jpg,0.0-12.0-10.0-0.9,0,True,True,0,False,True,True,False,True,True,False,8,8,False,,0,,,1,,,,0,,,,,images/1 (2090).jpg,B,B,,28,28,0,,DEBUGV2,,,initialTest_response,10,10,0,1,30388,0.52,592,image-keyboard-response,1,1,0,"current target, not in next trial",,,,2562
DEBUGV2,8wakw9j5xPcitP18GkMZ,0,True,,,2,r,False,False,,,f,T_foil,3,,1728,DEBUGV2,1 (1135).jpg,0.0-14.0-10.0-0.3,0,False,True,0,False,False,False,False,True,True,False,10,10,0,,0,,,1,,,,0,,,,,images/1 (1135).jpg,Fnn+1,Fnn,,0,0,0,,DEBUGV2,,,initialTest_response,4,4,0,0,32732,0.56,738,image-keyboard-response,0,1,1,"tested only, in next trial",,,,2562
DEBUGV2,90DJVVmCfHdOP8S5uNVs,0,False,,,2,r,False,False,,,j,T_target,3,,1728,DEBUGV2,1 (587).jpg,0.0-5.0-10.0-0.3,0,False,True,0,False,True,True,False,True,True,False,1,1,False,,0,,,1,,,,0,,,,,images/1 (587).jpg,B,B,,6,6,0,,DEBUGV2,,,initialTest_response,4,4,0,0,21591,0.37,54,image-keyboard-response,1,1,0,"current target, not in next trial",,,,2562
DEBUGV2,99fLEtfSwNCjsS6TviVU,,,,,2,r,,,,,,,3,,1728,DEBUGV2,,0.0-8.0-0.0-0.0,0,,,0,,,,,,,,,,,,,,,,,,,,,,,,"
    <p style='text-align: justify;color: black;background: white;font: caption-;''>
        Press the 'enter' key to see the next list of pictures. </p>
    ",,,,,,,,DEBUGV2,,,,,,,,24651,0.42,233,html-keyboard-response,,,,,,,,2562
DEBUGV2,99xjw1scrOhztPGbeDjP,,,,,2,r,,,,,,,3,,1728,DEBUGV2,,0.0-6.0-5.0-0.7,0,,,0,,,,,,,,2,,,,,,,,,8,,,,,,,6,,,6,,,,,DEBUGV2,,49,digitPresentation,,,,,22680,0.39,122,html-keyboard-response,,,,,,,,2562
DEBUGV2,9IVkMxvrRmX5L3savdQx,0,True,,,2,r,False,False,False,,f,T_foil,3,,1728,DEBUGV2,1 (252).jpg,0.0-6.0-10.0-0.5,0,True,False,0,False,False,False,False,True,False,True,2,1,2,,0,,,2,,,,0,,,,,images/1 (252).jpg,Fnn,Fnn,,0,0,0,,DEBUGV2,,,initialTest_response,6,0,6,477,22853,0.39,132,image-keyboard-response,0,1,1,"tested only, in next trial, from last trial",,,,2562
DEBUGV2,9PoLHiKXWpVshWGjqS1W,,,,,2,r,,,,,,,3,,1728,DEBUGV2,,0.0-6.0-3.0-0.0,0,,,0,,,,,,,,,,,,,,,,,,,,,,,,Summing up the digits as they appear,,,,,,,,DEBUGV2,,,prompt,,,,,22577,0.39,113,html-keyboard-response,,,,,,,,2562
DEBUGV2,9bVcQCIbOXpc6QlcShBW,,False,,,2,r,,,,,,T_nontarget,3,,1728,DEBUGV2,1 (1320).jpg,0.0-11.0-2.0-0.22,0,True,True,0,,True,True,False,False,False,False,7,7,0,4,0,,,1,,,,,,,,,images/1 (1320).jpg,A,A,,23,23,0,,DEBUGV2,,,initial_study,0,0,0,187,28666,0.49,485,image-keyboard-response,1,0,0,"studied only, not in trial",,,,2562
DEBUGV2,9jbfN0hbOcd0FL18yQPd,,True,,,2,r,,,,,,T_nontarget,3,,1728,DEBUGV2,1 (1063).jpg,0.0-7.0-2.0-0.20,0,True,True,0,,True,True,False,False,False,True,3,3,4,1,0,,,1,,,,,,,,,images/1 (1063).jpg,Cn+1,Cn,,21,21,0,,DEBUGV2,,,initial_study,0,0,7,49,23687,0.41,179,image-keyboard-response,1,0,1,"studied only, in next trial",,,,2562
DEBUGV2,9ngh1G6Se06jMp0yaWh0,,True,,,2,r,,,,,,T_target,3,,1728,DEBUGV2,1 (2356).jpg,0.0-8.0-2.0-0.2,0,True,True,0,,True,True,False,True,True,True,4,4,5,8,0,,,1,,,,,,,,,images/1 (2356).jpg,Dn+1,Dn,,3,3,0,,DEBUGV2,,,initial_study,29,29,1,350,24698,0.42,237,image-keyboard-response,1,1,1,"current target, in next trial",,,,2562
DEBUGV2,9qKkjvu3FVKYnbEfOkS3,,False,,,2,r,,,,,,T_nontarget,3,,1728,DEBUGV2,1 (611).jpg,0.0-6.0-2.0-0.9,0,False,True,0,,True,True,False,False,False,False,2,2,0,,0,,,1,,,,,,,,,images/1 (611).jpg,A,A,,10,10,0,,DEBUGV2,,,initial_study,0,0,0,0,22332,0.38,92,image-keyboard-response,1,0,0,"studied only, not in trial",,,,2562
DEBUGV2,9qX8JAGrBwZbH8LgSuUN,0,True,,,2,r,False,False,,,j,T_target,3,,1728,DEBUGV2,1 (1136).jpg,0.0-8.0-10.0-0.26,0,False,True,0,False,True,True,False,True,True,True,4,4,5,,0,,,1,,,,0,,,,,images/1 (1136).jpg,Dn+1,Dn,,22,22,0,,DEBUGV2,,,initialTest_response,27,27,2,0,25790,0.44,305,image-keyboard-response,1,1,1,"current target, in next trial",,,,2562
DEBUGV2,9yhXdaMQtR3cApxf7XZI,,False,,,2,r,,,,,,T_target,3,,1728,DEBUGV2,1 (201).jpg,0.0-9.0-2.0-0.29,0,False,True,0,,True,True,False,True,True,False,5,5,0,,0,,,1,,,,,,,,,images/1 (201).jpg,B,B,,30,30,0,,DEBUGV2,,,initial_study,18,18,0,0,26263,0.45,340,image-keyboard-response,1,1,0,"current target, not in next trial",,,,2562
DEBUGV2,A1QvgxrSJDcJRzlApe69,0,False,,,2,r,False,False,,,j,T_target,3,,1728,DEBUGV2,1 (2115).jpg,0.0-5.0-10.0-0.22,0,True,True,0,False,True,True,False,True,True,False,1,1,False,,0,,,1,,,,0,,,,,images/1 (2115).jpg,B,B,,5,5,0,,DEBUGV2,,,initialTest_response,23,23,0,380,22018,0.38,73,image-keyboard-response,1,1,0,"current target, not in next trial",,,,2562
DEBUGV2,A5LC5eF7VvfwSH0xPo26,,False,,,2,r,,,,,,T_target,3,,1728,DEBUGV2,1 (1645).jpg,0.0-5.0-2.0-0.1,0,True,True,0,,True,True,False,True,True,False,1,1,0,7,0,,,1,,,,,,,,,images/1 (1645).jpg,B,B,,2,2,0,,DEBUGV2,,,initial_study,8,8,0,339,21006,0.36,8,image-keyboard-response,1,1,0,"current target, not in next trial",,,,2562
DEBUGV2,ABz1I58V6ypHIzP2z3oM,,False,,,2,r,,,,,,T_nontarget,3,,1728,DEBUGV2,1 (537).jpg,0.0-7.0-2.0-0.24,0,True,True,0,,True,True,False,False,False,False,3,3,0,5,0,,,1,,,,,,,,,images/1 (537).jpg,A,A,,25,25,0,,DEBUGV2,,,initial_study,0,0,0,251,23733,0.41,183,image-keyboard-response,1,0,0,"studied only, not in trial",,,,2562
DEBUGV2,ALwpZn9FD3YQHUqxpEpc,,False,,,2,r,,,,,,T_nontarget,3,,1728,DEBUGV2,1 (1812).jpg,0.0-9.0-2.0-0.7,0,True,True,0,,True,True,False,False,False,False,5,5,0,8,0,,,1,,,,,,,,,images/1 (1812).jpg,A,A,,8,8,0,,DEBUGV2,,,initial_study,0,0,0,368,25986,0.44,318,image-keyboard-response,1,0,0,"studied only, not in trial",,,,2562
DEBUGV2,ANI8VxnMFTugkjKiTXTb,,,,,2,r,,,,,,,3,,1728,DEBUGV2,,0.0-11.0-4.0-0.0,0,,,0,,,,,,,,,,,,,,,,,,,,,,,,"<div style=""font-size:60px;"">+</div>",,,,,,,,DEBUGV2,,,fixation,,,,,28776,0.49,494,html-keyboard-response,,,,,,,,2562
DEBUGV2,ANYwsXk2RcP9uJJ3rn2s,,,,,2,r,,,,,,,3,,1728,DEBUGV2,,0.0-10.0-7.0-0.0,0,,,0,,,,,,,,,,,,,,,,,,,,,,,,<p background:white>INCORRECT!</p>,,,,,,,,DEBUGV2,,,promptfeedback,,,,,27628,0.47,428,html-keyboard-response,,,,,,,,2562
DEBUGV2,AOBsAusxum8RWaKKJl6A,0,True,,,2,r,False,False,False,,f,T_foil,3,,1728,DEBUGV2,1 (2086).jpg,0.0-12.0-10.0-0.14,0,True,False,0,False,False,True,False,True,True,True,8,7,8,,0,,,2,,,,0,,,,,images/1 (2086).jpg,Dn,Dn,,0,12,0,,DEBUGV2,,,initialTest_response,15,12,15,209,30501,0.52,597,image-keyboard-response,1,1,1,"current target, in next trial, from last trial",,,,2562
DEBUGV2,AUATKVIwUcarda4pwJb0,0,True,,,2,r,False,False,False,,f,T_foil,3,,1728,DEBUGV2,1 (183).jpg,0.0-6.0-10.0-0.7,0,True,False,0,False,False,True,False,True,True,True,2,1,2,,0,,,2,,,,0,,,,,images/1 (183).jpg,Dn,Dn,,0,9,0,,DEBUGV2,,,initialTest_response,8,9,8,107,22896,0.39,134,image-keyboard-response,1,1,1,"current target, in next trial, from last trial",,,,2562
DEBUGV2,AV2aKNaKfFr9e5Jg0k6S,,False,,,2,r,,,,,,T_nontarget,3,,1728,DEBUGV2,1 (1406).jpg,0.0-11.0-2.0-0.26,0,False,True,0,,True,True,False,False,False,False,7,7,0,,0,,,1,,,,,,,,,images/1 (1406).jpg,A,A,,27,27,0,,DEBUGV2,,,initial_study,0,0,0,0,28713,0.49,489,image-keyboard-response,1,0,0,"studied only, not in trial",,,,2562
DEBUGV2,AWmsSlDFxdkrPgLboGpo,0,True,,,2,r,False,False,,,f,T_foil,3,,1728,DEBUGV2,1 (203).jpg,0.0-6.0-10.0-0.1,0,True,True,0,False,False,False,False,True,True,True,2,2,3,7,0,,,1,,,,0,,,,,images/1 (203).jpg,Fnn+1,Fnn,,0,0,0,,DEBUGV2,,,initialTest_response,2,2,16,313,22762,0.39,128,image-keyboard-response,0,1,1,"tested only, in next trial",,,,2562
DEBUGV2,AXIA6nXzYRRtE4dHbwGQ,,False,,,2,r,,,,,,T_nontarget,3,,1728,DEBUGV2,1 (2106).jpg,0.0-14.0-2.0-0.7,0,False,True,0,,True,True,False,False,False,False,10,10,0,,0,,,1,,,,,,,,,images/1 (2106).jpg,A,A,,8,8,0,,DEBUGV2,,,initial_study,0,0,0,0,32225,0.55,698,image-keyboard-response,1,0,0,"studied only, not in trial",,,,2562
DEBUGV2,AZi4zQsEmBl2eOUZMsUS,0,False,,,2,r,False,False,,,j,T_target,3,,1728,DEBUGV2,1 (223).jpg,0.0-5.0-10.0-0.16,0,True,True,0,False,True,True,False,True,True,False,1,1,False,,0,,,1,,,,0,,,,,images/1 (223).jpg,B,B,,1,1,0,,DEBUGV2,,,initialTest_response,17,17,0,460,21882,0.38,67,image-keyboard-response,1,1,0,"current target, not in next trial",,,,2562
DEBUGV2,Adqpied2qQZmVlKEydgA,,,,,2,r,,,,,,,3,,1728,DEBUGV2,,0.0-8.0-5.0-0.1,0,,,0,,,,,,,,4,,,,,,,,,2,,,,,,,6,,,6,,,,,DEBUGV2,,45,digitPresentation,,,,,25067,0.43,268,html-keyboard-response,,,,,,,,2562
DEBUGV2,Ae9ZJBNkQwyeTj1HI87n,0,False,,,2,r,False,False,,,j,T_target,3,,1728,DEBUGV2,1 (1214).jpg,0.0-10.0-10.0-0.21,0,True,True,0,False,True,True,False,True,True,False,6,6,False,,0,,,1,,,,0,,,,,images/1 (1214).jpg,B,B,,10,10,0,,DEBUGV2,,,initialTest_response,22,22,0,85,28161,0.48,452,image-keyboard-response,1,1,0,"current target, not in next trial",,,,2562
DEBUGV2,AkP6nPj43usCtovCJ5sn,0,False,,,2,r,False,False,,,j,T_target,3,,1728,DEBUGV2,1 (384).jpg,0.0-8.0-10.0-0.1,0,True,True,0,False,True,True,False,True,True,False,4,4,False,,0,,,1,,,,0,,,,,images/1 (384).jpg,B,B,,18,18,0,,DEBUGV2,,,initialTest_response,2,2,0,101,25215,0.43,280,image-keyboard-response,1,1,0,"current target, not in next trial",,,,2562
DEBUGV2,AneeIXxP7c5ikRBoRQtr,,False,,,2,r,,,,,,T_target,3,,1728,DEBUGV2,1 (488).jpg,0.0-8.0-2.0-0.29,0,False,True,0,,True,True,False,True,True,False,4,4,0,,0,,,1,,,,,,,,,images/1 (488).jpg,B,B,,30,30,0,,DEBUGV2,,,initial_study,17,17,0,0,25023,0.43,264,image-keyboard-response,1,1,0,"current target, not in next trial",,,,2562
DEBUGV2,ArgXu9UkGdpaH0kHtRNQ,,,,,2,r,,,,,,,3,,1728,DEBUGV2,,0.0-14.0-5.0-0.0,0,,,0,,,,,,,,10,,,,,,,,,1,,,,,,,9,,,9,,,,,DEBUGV2,,56,digitPresentation,,,,,32532,0.55,723,html-keyboard-response,,,,,,,,2562
DEBUGV2,AsbCBB6gcwzSnNpyLu8E,,True,,,2,r,,,,,,T_target,3,,1728,DEBUGV2,1 (2216).jpg,0.0-6.0-2.0-0.12,0,True,True,0,,True,True,False,True,True,True,2,2,3,6,0,,,1,,,,,,,,,images/1 (2216).jpg,Dn+1,Dn,,13,13,0,,DEBUGV2,,,initial_study,16,16,22,296,22368,0.38,95,image-keyboard-response,1,1,1,"current target, in next trial",,,,2562
DEBUGV2,AwOdXDBapayNwfitZ1Nd,0,True,,,2,r,False,False,,,f,T_foil,3,,1728,DEBUGV2,1 (842).jpg,0.0-8.0-10.0-0.29,0,True,True,0,False,False,False,False,True,True,True,4,4,5,2,0,,,1,,,,0,,,,,images/1 (842).jpg,Fnn+1,Fnn,,0,0,0,,DEBUGV2,,,initialTest_response,30,30,24,90,25858,0.44,308,image-keyboard-response,0,1,1,"tested only, in next trial",,,,2562
DEBUGV2,Axy82M1byY6Kyc3wvm3d,,,,,2,r,,,,,,,3,,1728,DEBUGV2,,0.0-9.0-0.0-0.0,0,,,0,,,,,,,,,,,,,,,,,,,,,,,,"
    <p style='text-align: justify;color: black;background: white;font: caption-;''>
        Press the 'enter' key to see the next list of pictures. </p>
    ",,,,,,,,DEBUGV2,,,,,,,,25879,0.44,309,html-keyboard-response,,,,,,,,2562
DEBUGV2,B9DXFPf1wLdf62sXHJ1e,,False,,,2,r,,,,,,T_target,3,,1728,DEBUGV2,1 (2398).jpg,0.0-11.0-2.0-0.24,0,True,True,0,,True,True,False,True,True,False,7,7,0,1,0,,,1,,,,,,,,,images/1 (2398).jpg,B,B,,25,25,0,,DEBUGV2,,,initial_study,5,5,0,35,28689,0.49,487,image-keyboard-response,1,1,0,"current target, not in next trial",,,,2562
DEBUGV2,BFiQqHdJqlwgctNXdj1i,,False,,,2,r,,,,,,T_target,3,,1728,DEBUGV2,1 (587).jpg,0.0-5.0-2.0-0.5,0,False,True,0,,True,True,False,True,True,False,1,1,0,,0,,,1,,,,,,,,,images/1 (587).jpg,B,B,,6,6,0,,DEBUGV2,,,initial_study,4,4,0,0,21050,0.36,12,image-keyboard-response,1,1,0,"current target, not in next trial",,,,2562
DEBUGV2,BPL7BSLP8GR9MEB3dU5j,,False,,,2,r,,,,,,T_target,3,,1728,DEBUGV2,1 (2038).jpg,0.0-8.0-2.0-0.24,0,True,True,0,,True,True,False,True,True,False,4,4,0,9,0,,,1,,,,,,,,,images/1 (2038).jpg,B,B,,25,25,0,,DEBUGV2,,,initial_study,15,15,0,422,24965,0.43,259,image-keyboard-response,1,1,0,"current target, not in next trial",,,,2562
DEBUGV2,BSD5290D4zsaskZAYYkS,,,,,2,r,,,,,,,3,,1309,DEBUGV2,,0.0-1.0,0,,,0,,,,,,,,,,,,,,,,,,,,{'Q0': 'DEBUGV2'},,4859,,,,,,,,,,DEBUGV2,,,enterid,,,,,5344,0.10,1,survey-text,,,,,,,,1461
DEBUGV2,BbnUruymo6K83PxIZpN7,0,True,,,2,r,False,False,False,,f,T_foil,3,,1728,DEBUGV2,1 (1809).jpg,0.0-8.0-10.0-0.4,0,True,False,0,False,False,True,False,True,True,True,4,3,4,,0,,,2,,,,0,,,,,images/1 (1809).jpg,Dn,Dn,,0,23,0,,DEBUGV2,,,initialTest_response,5,23,5,257,25287,0.43,283,image-keyboard-response,1,1,1,"current target, in next trial, from last trial",,,,2562
DEBUGV2,BeCGqQ244NHkv7iR8iwL,0,False,,,2,r,False,False,,,j,T_target,3,,1728,DEBUGV2,1 (1840).jpg,0.0-12.0-10.0-0.23,0,True,True,0,False,True,True,False,True,True,False,8,8,False,,0,,,1,,,,0,,,,,images/1 (1840).jpg,B,B,,19,19,0,,DEBUGV2,,,initialTest_response,24,24,0,399,30723,0.52,606,image-keyboard-response,1,1,0,"current target, not in next trial",,,,2562
DEBUGV2,BfoUB0yDBNrd9AhdU1S0,0,True,,,2,r,False,False,,,f,T_foil,3,,1728,DEBUGV2,1 (96).jpg,0.0-8.0-10.0-0.20,0,False,True,0,False,False,False,False,True,True,True,4,4,5,,0,,,1,,,,0,,,,,images/1 (96).jpg,Fnn+1,Fnn,,0,0,0,,DEBUGV2,,,initialTest_response,21,21,4,0,25650,0.44,299,image-keyboard-response,0,1,1,"tested only, in next trial",,,,2562
DEBUGV2,BhKg1gXWezREpQQHx0Se,,,,,2,r,,,,,,,3,,1728,DEBUGV2,,0.0-9.0-3.0-0.0,0,,,0,,,,,,,,,,,,,,,,,,,,,,,,Summing up the digits as they appear,,,,,,,,DEBUGV2,,,prompt,,,,,26274,0.45,341,html-keyboard-response,,,,,,,,2562
DEBUGV2,BpJzDVkO9EvONykY1Zj1,,,,,2,r,,,,,,,3,,1728,DEBUGV2,,0.0-6.0-5.0-0.3,0,,,0,,,,,,,,2,,,,,,,,,4,,,,,,,5,,,5,,,,,DEBUGV2,,49,digitPresentation,,,,,22636,0.39,118,html-keyboard-response,,,,,,,,2562
DEBUGV2,BpmFSkY7FeSNXCsXEoWO,0,True,,,2,r,False,,False,,f,T_foil,3,,1728,DEBUGV2,1 (1992).jpg,0.0-12.0-10.0-0.13,0,True,False,0,False,False,True,False,True,False,True,8,7,8,,0,,,2,,,,0,,,,,images/1 (1992).jpg,Cn,Cn,,0,28,0,,DEBUGV2,,,initialTest_response,14,0,14,199,30478,0.52,596,image-keyboard-response,1,0,1,"studied only, in next trial, from last trial",,,,2562
DEBUGV2,BssmKKf1KiLn49seaAiD,0,False,,,2,r,False,False,,,j,T_target,3,,1728,DEBUGV2,1 (1548).jpg,0.0-9.0-10.0-0.14,0,True,True,0,False,True,True,False,True,True,False,5,5,False,,0,,,1,,,,0,,,,,images/1 (1548).jpg,B,B,,19,19,0,,DEBUGV2,,,initialTest_response,15,15,0,157,26738,0.46,369,image-keyboard-response,1,1,0,"current target, not in next trial",,,,2562
DEBUGV2,BuO482Bk5ud8wiQ9MW49,0,False,,,2,r,False,False,,,j,T_target,3,,1728,DEBUGV2,1 (1942).jpg,0.0-6.0-10.0-0.29,0,True,True,0,False,True,True,False,True,True,False,2,2,False,,0,,,1,,,,0,,,,,images/1 (1942).jpg,B,B,,25,25,0,,DEBUGV2,,,initialTest_response,30,30,0,170,23392,0.40,156,image-keyboard-response,1,1,0,"current target, not in next trial",,,,2562
DEBUGV2,ByvBJvLkmdF20F53klkD,,,,,2,r,,,,,,,3,,1728,DEBUGV2,,0.0-14.0-5.0-0.4,0,,,0,,,,,,,,10,,,,,,,,,5,,,,,,,9,,,9,,,,,DEBUGV2,,56,digitPresentation,,,,,32575,0.55,727,html-keyboard-response,,,,,,,,2562
DEBUGV2,C5rICCA8Tq0ZsYuFY6DA,,False,,,2,r,,,,,,T_target,3,,1728,DEBUGV2,1 (234).jpg,0.0-7.0-2.0-0.29,0,True,True,0,,True,True,False,True,True,False,3,3,0,1,0,,,1,,,,,,,,,images/1 (234).jpg,B,B,,30,30,0,,DEBUGV2,,,initial_study,8,8,0,16,23793,0.41,188,image-keyboard-response,1,1,0,"current target, not in next trial",,,,2562
DEBUGV2,C9NsW7bQ7hQXevqwsOM4,0,True,,,2,r,False,False,False,,f,T_foil,3,,1728,DEBUGV2,1 (1136).jpg,0.0-9.0-10.0-0.1,0,False,False,0,False,False,True,False,True,True,True,5,4,5,,0,,,2,,,,0,,,,,images/1 (1136).jpg,Dn,Dn,,0,22,0,,DEBUGV2,,,initialTest_response,2,22,2,0,26452,0.45,356,image-keyboard-response,1,1,1,"current target, in next trial, from last trial",,,,2562
DEBUGV2,CBMleKsdeNSn8c9DN9kS,,,,,2,r,,,,,,,3,,1728,DEBUGV2,,0.0-8.0-8.0-0.0,0,,,0,,,,,,,,,,,,,,,,,,,,,,,,Now judge if you have seen this pictures from the list you JUST studied before the digits,,,,,,,,DEBUGV2,,,prompt,,,,,25170,0.43,277,html-keyboard-response,,,,,,,,2562
DEBUGV2,CDy2EqtwpvFZC7RdxzBR,,False,,,2,r,,,,,,T_target,3,,1728,DEBUGV2,1 (909).jpg,0.0-6.0-2.0-0.5,0,True,True,0,,True,True,False,True,True,False,2,2,0,5,0,,,1,,,,,,,,,images/1 (909).jpg,B,B,,6,6,0,,DEBUGV2,,,initial_study,25,25,0,236,22287,0.38,88,image-keyboard-response,1,1,0,"current target, not in next trial",,,,2562
DEBUGV2,CG4hfQ4RrWvrbh6FuX7c,0,False,,,2,r,False,False,,,j,T_target,3,,1728,DEBUGV2,1 (1865).jpg,0.0-9.0-10.0-0.4,0,True,True,0,False,True,True,False,True,True,False,5,5,False,,0,,,1,,,,0,,,,,images/1 (1865).jpg,B,B,,24,24,0,,DEBUGV2,,,initialTest_response,5,5,0,132,26519,0.45,359,image-keyboard-response,1,1,0,"current target, not in next trial",,,,2562
DEBUGV2,CH1T3XHx6Q2YGkFmSoqg,,,,,2,r,,,,,,,3,,1728,DEBUGV2,,0.0-8.0-5.0-0.3,0,,,0,,,,,,,,4,,,,,,,,,4,,,,,,,4,,,4,,,,,DEBUGV2,,45,digitPresentation,,,,,25088,0.43,270,html-keyboard-response,,,,,,,,2562
DEBUGV2,CJ9EGGGmOUknj29ADdKw,0,True,,,2,r,False,False,,,j,T_target,3,,1728,DEBUGV2,1 (343).jpg,0.0-13.0-10.0-0.22,0,True,True,0,False,True,True,False,True,True,True,9,9,10,,0,,,1,,,,0,,,,,images/1 (343).jpg,Dn+1,Dn,,7,7,0,,DEBUGV2,,,initialTest_response,23,23,25,46,31928,0.54,681,image-keyboard-response,1,1,1,"current target, in next trial",,,,2562
DEBUGV2,CQy1Wpsy76g0wbGCCXkB,0,False,,,2,r,False,False,,,j,T_target,3,,1728,DEBUGV2,1 (43).jpg,0.0-13.0-10.0-0.17,0,True,True,0,False,True,True,False,True,True,False,9,9,False,,0,,,1,,,,0,,,,,images/1 (43).jpg,B,B,,17,17,0,,DEBUGV2,,,initialTest_response,18,18,0,189,31804,0.54,676,image-keyboard-response,1,1,0,"current target, not in next trial",,,,2562
DEBUGV2,ClMZbltU5D80Ig2SQkng,0,True,,,2,r,False,,False,,f,T_foil,3,,1728,DEBUGV2,1 (2030).jpg,0.0-7.0-10.0-0.9,0,False,False,0,False,False,True,False,True,False,True,3,2,3,,0,,,2,,,,0,,,,,images/1 (2030).jpg,Cn,Cn,,0,14,0,,DEBUGV2,,,initialTest_response,10,0,10,0,24168,0.41,212,image-keyboard-response,1,0,1,"studied only, in next trial, from last trial",,,,2562
DEBUGV2,Cm5aSJF3qINYyEp6PFV9,0,True,,,2,r,False,False,False,,f,T_foil,3,,1728,DEBUGV2,1 (278).jpg,0.0-11.0-10.0-0.24,0,True,False,0,False,False,True,False,True,True,True,7,6,7,,0,,,2,,,,0,,,,,images/1 (278).jpg,Dn,Dn,,0,23,0,,DEBUGV2,,,initialTest_response,25,23,25,383,29483,0.50,531,image-keyboard-response,1,1,1,"current target, in next trial, from last trial",,,,2562
DEBUGV2,CnSzTZxOIQFkfuyVM0Kv,0,True,,,2,r,False,False,False,,f,T_foil,3,,1728,DEBUGV2,1 (2216).jpg,0.0-7.0-10.0-0.21,0,True,False,0,False,False,True,False,True,True,True,3,2,3,,0,,,2,,,,0,,,,,images/1 (2216).jpg,Dn,Dn,,0,13,0,,DEBUGV2,,,initialTest_response,22,13,22,296,24442,0.42,224,image-keyboard-response,1,1,1,"current target, in next trial, from last trial",,,,2562
DEBUGV2,CtHCX9J7SPnlXEJL1EMV,0,False,,,2,r,False,False,,,j,T_target,3,,1728,DEBUGV2,1 (125).jpg,0.0-12.0-10.0-0.16,0,True,True,0,False,True,True,False,True,True,False,8,8,False,,0,,,1,,,,0,,,,,images/1 (125).jpg,B,B,,22,22,0,,DEBUGV2,,,initialTest_response,17,17,0,226,30546,0.52,599,image-keyboard-response,1,1,0,"current target, not in next trial",,,,2562
DEBUGV2,CwMP9ghWql0SdTggnjZE,0,True,,,2,r,False,False,,,j,T_target,3,,1728,DEBUGV2,1 (204).jpg,0.0-8.0-10.0-0.12,0,True,True,0,False,True,True,False,True,True,True,4,4,5,,0,,,1,,,,0,,,,,images/1 (204).jpg,Dn+1,Dn,,24,24,0,,DEBUGV2,,,initialTest_response,13,13,9,479,25463,0.43,291,image-keyboard-response,1,1,1,"current target, in next trial",,,,2562
DEBUGV2,D108VFq9j9rCqoLPVvJS,,True,,,2,r,,,,,,T_nontarget,3,,1728,DEBUGV2,1 (1689).jpg,0.0-12.0-2.0-0.9,0,False,True,0,,True,True,False,False,False,True,8,8,9,,0,,,1,,,,,,,,,images/1 (1689).jpg,Cn+1,Cn,,10,10,0,,DEBUGV2,,,initial_study,0,0,8,0,29757,0.51,548,image-keyboard-response,1,0,1,"studied only, in next trial",,,,2562
DEBUGV2,D9gNI8mmzrcwMTc3vgHK,,False,,,2,r,,,,,,T_target,3,,1728,DEBUGV2,1 (348).jpg,0.0-12.0-2.0-0.10,0,True,True,0,,True,True,False,True,True,False,8,8,0,5,0,,,1,,,,,,,,,images/1 (348).jpg,B,B,,11,11,0,,DEBUGV2,,,initial_study,5,5,0,245,29771,0.51,549,image-keyboard-response,1,1,0,"current target, not in next trial",,,,2562
DEBUGV2,DEJjPel78PnDaI4fHZMp,0,True,,,2,r,False,False,,,j,T_target,3,,1728,DEBUGV2,1 (2216).jpg,0.0-6.0-10.0-0.15,0,True,True,0,False,True,True,False,True,True,True,2,2,3,,0,,,1,,,,0,,,,,images/1 (2216).jpg,Dn+1,Dn,,13,13,0,,DEBUGV2,,,initialTest_response,16,16,22,296,23077,0.40,142,image-keyboard-response,1,1,1,"current target, in next trial",,,,2562
DEBUGV2,DLoLaCpovYkvigXmSeIU,0,False,,,2,r,False,False,,,j,T_target,3,,1728,DEBUGV2,1 (226).jpg,0.0-12.0-10.0-0.7,0,True,True,0,False,True,True,False,True,True,False,8,8,False,,0,,,1,,,,0,,,,,images/1 (226).jpg,B,B,,24,24,0,,DEBUGV2,,,initialTest_response,8,8,0,144,30344,0.52,590,image-keyboard-response,1,1,0,"current target, not in next trial",,,,2562
DEBUGV2,DObgJmB1BXurgBPazlw2,,True,,,2,r,,,,,,T_nontarget,3,,1728,DEBUGV2,1 (1600).jpg,0.0-10.0-2.0-0.13,0,True,True,0,,True,True,False,False,False,True,6,6,7,10,0,,,1,,,,,,,,,images/1 (1600).jpg,Cn+1,Cn,,14,14,0,,DEBUGV2,,,initial_study,0,0,23,492,27287,0.47,400,image-keyboard-response,1,0,1,"studied only, in next trial",,,,2562
DEBUGV2,DPWRDgl7XQxXg0AIar0E,0,True,,,2,r,False,False,,,f,T_foil,3,,1728,DEBUGV2,1 (1838).jpg,0.0-13.0-10.0-0.25,0,False,True,0,False,False,False,False,True,True,True,9,9,10,,0,,,1,,,,0,,,,,images/1 (1838).jpg,Fnn+1,Fnn,,0,0,0,,DEBUGV2,,,initialTest_response,26,26,15,0,31994,0.54,684,image-keyboard-response,0,1,1,"tested only, in next trial",,,,2562
DEBUGV2,DRgEGKBQRXAgrjtWXI9b,,False,,,2,r,,,,,,T_target,3,,1728,DEBUGV2,1 (357).jpg,0.0-6.0-2.0-0.19,0,False,True,0,,True,True,False,True,True,False,2,2,0,,0,,,1,,,,,,,,,images/1 (357).jpg,B,B,,20,20,0,,DEBUGV2,,,initial_study,12,12,0,0,22444,0.38,102,image-keyboard-response,1,1,0,"current target, not in next trial",,,,2562
DEBUGV2,DhLPPIqhc3Y8PkXLOld3,,False,,,2,r,,,,,,T_nontarget,3,,1728,DEBUGV2,1 (553).jpg,0.0-12.0-2.0-0.6,0,True,True,0,,True,True,False,False,False,False,8,8,0,10,0,,,1,,,,,,,,,images/1 (553).jpg,A,A,,7,7,0,,DEBUGV2,,,initial_study,0,0,0,483,29710,0.51,545,image-keyboard-response,1,0,0,"studied only, not in trial",,,,2562
DEBUGV2,DkOgaalqut2SjeDs0EEO,,,,,2,r,,,,,,,3,,1728,DEBUGV2,,0.0-13.0-5.0-0.1,0,,,0,,,,,,,,9,,,,,,,,,2,,,,,,,9,,,9,,,,,DEBUGV2,,52,digitPresentation,,,,,31290,0.53,648,html-keyboard-response,,,,,,,,2562
DEBUGV2,DrFcbwKFFU6xr2N2GmBV,,False,,,2,r,,,,,,T_nontarget,3,,1728,DEBUGV2,1 (232).jpg,0.0-10.0-2.0-0.3,0,False,True,0,,True,True,False,False,False,False,6,6,0,,0,,,1,,,,,,,,,images/1 (232).jpg,A,A,,4,4,0,,DEBUGV2,,,initial_study,0,0,0,0,27168,0.46,390,image-keyboard-response,1,0,0,"studied only, not in trial",,,,2562
DEBUGV2,E6JW9GmZH5lskLaKIBn2,,False,,,2,r,,,,,,T_target,3,,1728,DEBUGV2,1 (859).jpg,0.0-11.0-2.0-0.17,0,False,True,0,,True,True,False,True,True,False,7,7,0,,0,,,1,,,,,,,,,images/1 (859).jpg,B,B,,18,18,0,,DEBUGV2,,,initial_study,17,17,0,0,28607,0.49,480,image-keyboard-response,1,1,0,"current target, not in next trial",,,,2562
DEBUGV2,E7LSMNL6nxumy4Jo5D5f,0,False,,,2,r,False,False,,,j,T_target,3,,1728,DEBUGV2,1 (574).jpg,0.0-9.0-10.0-0.7,0,True,True,0,False,True,True,False,True,True,False,5,5,False,,0,,,1,,,,0,,,,,images/1 (574).jpg,B,B,,17,17,0,,DEBUGV2,,,initialTest_response,8,8,0,247,26585,0.45,362,image-keyboard-response,1,1,0,"current target, not in next trial",,,,2562
DEBUGV2,E7zfXqwhG0y0AcyMg120,0,False,,,2,r,False,False,,,j,T_target,3,,1728,DEBUGV2,1 (2359).jpg,0.0-7.0-10.0-0.28,0,False,True,0,False,True,True,False,True,True,False,3,3,False,,0,,,1,,,,0,,,,,images/1 (2359).jpg,B,B,,10,10,0,,DEBUGV2,,,initialTest_response,29,29,0,0,24607,0.42,231,image-keyboard-response,1,1,0,"current target, not in next trial",,,,2562
DEBUGV2,EJ7THCKp2wM8lcBn8RES,,,,,2,r,,,,,,,3,,1728,DEBUGV2,,0.0-11.0-5.0-0.7,0,,,0,,,,,,,,7,,,,,,,,,8,,,,,,,4,,,4,,,,,DEBUGV2,,52,digitPresentation,,,,,28875,0.49,502,html-keyboard-response,,,,,,,,2562
DEBUGV2,ESrO1NGzk9k806LAbou4,0,False,,,2,r,False,False,,,j,T_target,3,,1728,DEBUGV2,1 (776).jpg,0.0-14.0-10.0-0.7,0,True,True,0,False,True,True,False,True,True,False,10,10,0,,0,,,1,,,,0,,,,,images/1 (776).jpg,B,B,,16,16,0,,DEBUGV2,,,initialTest_response,8,8,0,438,32821,0.56,742,image-keyboard-response,1,1,0,"current target, not in next trial",,,,2562
DEBUGV2,EiVxBkCs7qRgnJ9C8XFh,,,,,2,r,,,,,,,3,,1728,DEBUGV2,,0.0-9.0-5.0-0.0,0,,,0,,,,,,,,5,,,,,,,,,1,,,,,,,8,,,8,,,,,DEBUGV2,,44,digitPresentation,,,,,26296,0.45,343,html-keyboard-response,,,,,,,,2562
DEBUGV2,El3sjAAhS3sG6VUtolcn,0,True,,,2,r,False,False,,,j,T_target,3,,1728,DEBUGV2,1 (123).jpg,0.0-13.0-10.0-0.10,0,True,True,0,False,True,True,False,True,True,True,9,9,10,,0,,,1,,,,0,,,,,images/1 (123).jpg,Dn+1,Dn,,8,8,0,,DEBUGV2,,,initialTest_response,11,11,13,398,31643,0.54,669,image-keyboard-response,1,1,1,"current target, in next trial",,,,2562
DEBUGV2,EwMouevrwKEjUA1laI7T,,False,,,2,r,,,,,,T_target,3,,1728,DEBUGV2,1 (957).jpg,0.0-8.0-2.0-0.10,0,False,True,0,,True,True,False,True,True,False,4,4,0,,0,,,1,,,,,,,,,images/1 (957).jpg,B,B,,11,11,0,,DEBUGV2,,,initial_study,19,19,0,0,24801,0.42,245,image-keyboard-response,1,1,0,"current target, not in next trial",,,,2562
DEBUGV2,EyfMHatauUYoPOSUYo6e,,False,,,2,r,,,,,,T_target,3,,1728,DEBUGV2,1 (1873).jpg,0.0-7.0-2.0-0.18,0,False,True,0,,True,True,False,True,True,False,3,3,0,,0,,,1,,,,,,,,,images/1 (1873).jpg,B,B,,19,19,0,,DEBUGV2,,,initial_study,24,24,0,0,23652,0.40,177,image-keyboard-response,1,1,0,"current target, not in next trial",,,,2562
DEBUGV2,F7d6UkgB8qqSWKjeWV7L,0,False,,,2,r,False,False,,,f,T_foil,3,,1728,DEBUGV2,1 (771).jpg,0.0-5.0-10.0-0.27,0,True,True,0,False,False,False,False,True,True,False,1,1,False,8,0,,,1,,,,0,,,,,images/1 (771).jpg,Fn+1,Fn,,0,0,0,,DEBUGV2,,,initialTest_response,28,28,0,362,22131,0.38,78,image-keyboard-response,0,1,0,"tested only, not in next trial",,,,2562
DEBUGV2,FK5juPGHat4AIwESvRTT,,False,,,2,r,,,,,,T_nontarget,3,,1728,DEBUGV2,1 (1202).jpg,0.0-8.0-2.0-0.4,0,True,True,0,,True,True,False,False,False,False,4,4,0,5,0,,,1,,,,,,,,,images/1 (1202).jpg,A,A,,5,5,0,,DEBUGV2,,,initial_study,0,0,0,218,24725,0.42,239,image-keyboard-response,1,0,0,"studied only, not in trial",,,,2562
DEBUGV2,FPNXmtM4Psf5fa1Aj2ee,,False,,,2,r,,,,,,T_target,3,,1728,DEBUGV2,1 (1865).jpg,0.0-9.0-2.0-0.23,0,True,True,0,,True,True,False,True,True,False,5,5,0,3,0,,,1,,,,,,,,,images/1 (1865).jpg,B,B,,24,24,0,,DEBUGV2,,,initial_study,5,5,0,132,26181,0.45,334,image-keyboard-response,1,1,0,"current target, not in next trial",,,,2562
DEBUGV2,FQU8Z40EXlMsNEpxphI4,0,False,,,2,r,False,False,,,j,T_target,3,,1728,DEBUGV2,1 (2146).jpg,0.0-10.0-10.0-0.3,0,False,True,0,False,True,True,False,True,True,False,6,6,False,,0,,,1,,,,0,,,,,images/1 (2146).jpg,B,B,,11,11,0,,DEBUGV2,,,initialTest_response,4,4,0,0,27730,0.47,434,image-keyboard-response,1,1,0,"current target, not in next trial",,,,2562
DEBUGV2,FQxR3gMeiY1iAfsSsFto,,False,,,2,r,,,,,,T_nontarget,3,,1728,DEBUGV2,1 (1603).jpg,0.0-7.0-2.0-0.25,0,False,True,0,,True,True,False,False,False,False,3,3,0,,0,,,1,,,,,,,,,images/1 (1603).jpg,A,A,,26,26,0,,DEBUGV2,,,initial_study,0,0,0,0,23744,0.41,184,image-keyboard-response,1,0,0,"studied only, not in trial",,,,2562
DEBUGV2,FY6LUZIX30R8vNrPpl5O,,,,,2,r,,,,,,,3,,1728,DEBUGV2,,0.0-6.0-1.0-0.0,0,,,0,,,,,,,,,,,,,,,,,,,,,,,,"<div style=""font-size:60px;"">+</div>",,,,,,,,DEBUGV2,,,fixation,,,,,22209,0.38,82,html-keyboard-response,,,,,,,,2562
DEBUGV2,FYCffvFnsHWkoHMGZjGa,,False,,,2,r,,,,,,T_nontarget,3,,1728,DEBUGV2,1 (1945).jpg,0.0-13.0-2.0-0.11,0,False,True,0,,True,True,False,False,False,False,9,9,0,,0,,,1,,,,,,,,,images/1 (1945).jpg,A,A,,12,12,0,,DEBUGV2,,,initial_study,0,0,0,0,31031,0.53,626,image-keyboard-response,1,0,0,"studied only, not in trial",,,,2562
DEBUGV2,FeuUFiRI82AQ08anZjwv,0,True,,,2,r,False,False,False,,f,T_foil,3,,1728,DEBUGV2,1 (218).jpg,0.0-8.0-10.0-0.21,0,False,False,0,False,False,True,False,True,True,True,4,3,4,,0,,,2,,,,0,,,,,images/1 (218).jpg,Dn,Dn,,0,16,0,,DEBUGV2,,,initialTest_response,22,16,22,0,25678,0.44,300,image-keyboard-response,1,1,1,"current target, in next trial, from last trial",,,,2562
DEBUGV2,FggvGmJDLYOJypNlrNqZ,0,True,,,2,r,False,False,False,,f,T_foil,3,,1728,DEBUGV2,1 (1408).jpg,0.0-8.0-10.0-0.13,0,True,False,0,False,False,False,False,True,False,True,4,3,4,,0,,,2,,,,0,,,,,images/1 (1408).jpg,Fnn,Fnn,,0,0,0,,DEBUGV2,,,initialTest_response,14,0,14,201,25486,0.44,292,image-keyboard-response,0,1,1,"tested only, in next trial, from last trial",,,,2562
DEBUGV2,FlC5cNm2n7o2ZgwjdffB,0,False,,,2,r,False,False,,,j,T_target,3,,1728,DEBUGV2,1 (1367).jpg,0.0-14.0-10.0-0.1,0,True,True,0,False,True,True,False,True,True,False,10,10,0,,0,,,1,,,,0,,,,,images/1 (1367).jpg,B,B,,19,19,0,,DEBUGV2,,,initialTest_response,2,2,0,258,32686,0.56,736,image-keyboard-response,1,1,0,"current target, not in next trial",,,,2562
DEBUGV2,FlNgfY9nCCxaFpnujevf,,,,,2,r,,,,,,,3,,1728,DEBUGV2,,0.0-12.0-8.0-0.0,0,,,0,,,,,,,,,,,,,,,,,,,,,,,,Now judge if you have seen this pictures from the list you JUST studied before the digits,,,,,,,,DEBUGV2,,,prompt,,,,,30143,0.51,581,html-keyboard-response,,,,,,,,2562
DEBUGV2,FlojZcdpvK4bmpopJkHX,,,,,2,r,,,,,,,3,,1728,DEBUGV2,,0.0-14.0-1.0-0.0,0,,,0,,,,,,,,,,,,,,,,,,,,,,,,"<div style=""font-size:60px;"">+</div>",,,,,,,,DEBUGV2,,,fixation,,,,,32124,0.55,690,html-keyboard-response,,,,,,,,2562
DEBUGV2,FmDprPiD4x6RPwbWla6v,,,,,2,r,,,,,,,3,,1728,DEBUGV2,,0.0-12.0-5.0-0.1,0,,,0,,,,,,,,8,,,,,,,,,2,,,,,,,9,,,9,,,,,DEBUGV2,,60,digitPresentation,,,,,30038,0.51,572,html-keyboard-response,,,,,,,,2562
DEBUGV2,FosTtrcUQIJbIrPDEmR9,,False,,,2,r,,,,,,T_nontarget,3,,1728,DEBUGV2,1 (2301).jpg,0.0-14.0-2.0-0.26,0,False,True,0,,True,True,False,False,False,False,10,10,0,,0,,,1,,,,,,,,,images/1 (2301).jpg,A,A,,27,27,0,,DEBUGV2,,,initial_study,0,0,0,0,32454,0.55,717,image-keyboard-response,1,0,0,"studied only, not in trial",,,,2562
DEBUGV2,FpnPZZgoEqJ77JW5XiJv,,,,,2,r,,,,,,,3,,1728,DEBUGV2,,0.0-5.0-5.0-0.3,0,,,0,,,,,,,,1,,,,,,,,,4,,,,,,,9,,,9,,,,,DEBUGV2,,59,digitPresentation,,,,,21419,0.37,42,html-keyboard-response,,,,,,,,2562
DEBUGV2,FufqJUyM9sVpCwRLxHbx,,False,,,2,r,,,,,,T_target,3,,1728,DEBUGV2,1 (79).jpg,0.0-9.0-2.0-0.5,0,False,True,0,,True,True,False,True,True,False,5,5,0,,0,,,1,,,,,,,,,images/1 (79).jpg,B,B,,6,6,0,,DEBUGV2,,,initial_study,27,27,0,0,25963,0.44,316,image-keyboard-response,1,1,0,"current target, not in next trial",,,,2562
DEBUGV2,FxgC6V5YkP8c8RI1Ey6i,0,True,,,2,r,False,False,,,j,T_target,3,,1728,DEBUGV2,1 (2356).jpg,0.0-8.0-10.0-0.28,0,True,True,0,False,True,True,False,True,True,True,4,4,5,,0,,,1,,,,0,,,,,images/1 (2356).jpg,Dn+1,Dn,,3,3,0,,DEBUGV2,,,initialTest_response,29,29,1,350,25835,0.44,307,image-keyboard-response,1,1,1,"current target, in next trial",,,,2562
DEBUGV2,G27ew9Q8BrKTYbBHX6zU,0,True,,,2,r,False,False,False,,f,T_foil,3,,1728,DEBUGV2,1 (176).jpg,0.0-10.0-10.0-0.2,0,True,False,0,False,False,True,False,True,True,True,6,5,6,,0,,,2,,,,0,,,,,images/1 (176).jpg,Dn,Dn,,0,4,0,,DEBUGV2,,,initialTest_response,3,4,3,63,27708,0.47,433,image-keyboard-response,1,1,1,"current target, in next trial, from last trial",,,,2562
DEBUGV2,G5e2kEW6FCR6vHM1Eewa,0,True,,,2,r,False,,False,,f,T_foil,3,,1728,DEBUGV2,1 (1481).jpg,0.0-9.0-10.0-0.10,0,True,False,0,False,False,True,False,True,False,True,5,4,5,,0,,,2,,,,0,,,,,images/1 (1481).jpg,Cn,Cn,,0,28,0,,DEBUGV2,,,initialTest_response,11,0,11,29,26650,0.45,365,image-keyboard-response,1,0,1,"studied only, in next trial, from last trial",,,,2562
DEBUGV2,GBCx9V6MQ6NdED6UQH1H,0,True,,,2,r,False,False,,,j,T_target,3,,1728,DEBUGV2,1 (334).jpg,0.0-12.0-10.0-0.20,0,True,True,0,False,True,True,False,True,True,True,8,8,9,,0,,,1,,,,0,,,,,images/1 (334).jpg,Dn+1,Dn,,23,23,0,,DEBUGV2,,,initialTest_response,21,21,9,75,30652,0.52,603,image-keyboard-response,1,1,1,"current target, in next trial",,,,2562
DEBUGV2,GVjnCU4eDZe8ElbseF8F,,False,,,2,r,,,,,,T_nontarget,3,,1728,DEBUGV2,1 (174).jpg,0.0-5.0-2.0-0.18,0,False,True,0,,True,True,False,False,False,False,1,1,0,,0,,,1,,,,,,,,,images/1 (174).jpg,A,A,,19,19,0,,DEBUGV2,,,initial_study,0,0,0,0,21203,0.36,25,image-keyboard-response,1,0,0,"studied only, not in trial",,,,2562
DEBUGV2,GZntUGoycSYWaM6jHVRs,,False,,,2,r,,,,,,T_nontarget,3,,1728,DEBUGV2,1 (473).jpg,0.0-6.0-2.0-0.29,0,True,True,0,,True,True,False,False,False,False,2,2,0,9,0,,,1,,,,,,,,,images/1 (473).jpg,A,A,,30,30,0,,DEBUGV2,,,initial_study,0,0,0,414,22566,0.39,112,image-keyboard-response,1,0,0,"studied only, not in trial",,,,2562
DEBUGV2,Ggbt1K2sTjj986N0XQNs,0,False,,,2,r,False,False,,,j,T_target,3,,1728,DEBUGV2,1 (2400).jpg,0.0-6.0-10.0-0.3,0,True,True,0,False,True,True,False,True,True,False,2,2,False,,0,,,1,,,,0,,,,,images/1 (2400).jpg,B,B,,18,18,0,,DEBUGV2,,,initialTest_response,4,4,0,450,22809,0.39,130,image-keyboard-response,1,1,0,"current target, not in next trial",,,,2562
DEBUGV2,GiftY2QeqLTgcb9ya5Mh,,False,,,2,r,,,,,,T_target,3,,1728,DEBUGV2,1 (226).jpg,0.0-12.0-2.0-0.23,0,True,True,0,,True,True,False,True,True,False,8,8,0,3,0,,,1,,,,,,,,,images/1 (226).jpg,B,B,,24,24,0,,DEBUGV2,,,initial_study,8,8,0,144,29924,0.51,562,image-keyboard-response,1,1,0,"current target, not in next trial",,,,2562
DEBUGV2,GyGj0z4bjKYgHQqwwzlI,,False,,,2,r,,,,,,T_nontarget,3,,1728,DEBUGV2,1 (1576).jpg,0.0-11.0-2.0-0.9,0,False,True,0,,True,True,False,False,False,False,7,7,0,,0,,,1,,,,,,,,,images/1 (1576).jpg,A,A,,10,10,0,,DEBUGV2,,,initial_study,0,0,0,0,28506,0.49,472,image-keyboard-response,1,0,0,"studied only, not in trial",,,,2562
DEBUGV2,H5N20kAYruy99YY8Ppdk,0,False,,,2,r,False,False,,,f,T_foil,3,,1728,DEBUGV2,1 (155).jpg,0.0-5.0-10.0-0.6,0,True,True,0,False,False,False,False,True,True,False,1,1,False,4,0,,,1,,,,0,,,,,images/1 (155).jpg,Fn+1,Fn,,0,0,0,,DEBUGV2,,,initialTest_response,7,7,0,200,21658,0.37,57,image-keyboard-response,0,1,0,"tested only, not in next trial",,,,2562
DEBUGV2,H77o8JcOwzw2MzVwLsDw,,True,,,2,r,,,,,,T_target,3,,1728,DEBUGV2,1 (74).jpg,0.0-14.0-2.0-0.20,0,False,True,0,,True,True,False,True,True,False,10,10,0,,0,,,1,,,,,,,,,images/1 (74).jpg,Dn+1,Dn,,21,21,0,,DEBUGV2,,,initial_study,3,3,0,0,32387,0.55,711,image-keyboard-response,1,1,1,"current target, in next trial",,,,2562
DEBUGV2,H880e5hfhKrksc2WjMWj,0,True,,,2,r,False,,False,,f,T_foil,3,,1728,DEBUGV2,1 (1211).jpg,0.0-9.0-10.0-0.24,0,True,False,0,False,False,True,False,True,False,True,5,4,5,,0,,,2,,,,0,,,,,images/1 (1211).jpg,Cn,Cn,,0,26,0,,DEBUGV2,,,initialTest_response,25,0,25,423,26976,0.46,379,image-keyboard-response,1,0,1,"studied only, in next trial, from last trial",,,,2562
DEBUGV2,HEV7Ir3jMvHd80iefsWI,,False,,,2,r,,,,,,T_target,3,,1728,DEBUGV2,1 (2142).jpg,0.0-10.0-2.0-0.25,0,True,True,0,,True,True,False,True,True,False,6,6,0,6,0,,,1,,,,,,,,,images/1 (2142).jpg,B,B,,26,26,0,,DEBUGV2,,,initial_study,30,30,0,289,27433,0.47,412,image-keyboard-response,1,1,0,"current target, not in next trial",,,,2562
DEBUGV2,HIt2e4I5BTJD0LjmiBlu,,True,,,2,r,,,,,,T_nontarget,3,,1728,DEBUGV2,1 (1023).jpg,0.0-5.0-2.0-0.10,0,True,True,0,,True,True,False,False,False,True,1,1,2,9,0,,,1,,,,,,,,,images/1 (1023).jpg,Cn+1,Cn,,11,11,0,,DEBUGV2,,,initial_study,0,0,20,428,21111,0.36,17,image-keyboard-response,1,0,1,"studied only, in next trial",,,,2562
DEBUGV2,HJDYXU2Y8ZKwHMgaz0qo,0,True,,,2,r,False,False,False,,f,T_foil,3,,1728,DEBUGV2,1 (2320).jpg,0.0-8.0-10.0-0.15,0,False,False,0,False,False,False,False,True,False,True,4,3,4,,0,,,2,,,,0,,,,,images/1 (2320).jpg,Fnn,Fnn,,0,0,0,,DEBUGV2,,,initialTest_response,16,0,16,0,25530,0.44,294,image-keyboard-response,0,1,1,"tested only, in next trial, from last trial",,,,2562
DEBUGV2,HMir9gIYZP8oajiRJPa2,,,,,2,r,,,,,,,3,,1728,DEBUGV2,,0.0-8.0-3.0-0.0,0,,,0,,,,,,,,,,,,,,,,,,,,,,,,Summing up the digits as they appear,,,,,,,,DEBUGV2,,,prompt,,,,,25034,0.43,265,html-keyboard-response,,,,,,,,2562
DEBUGV2,HPlbtC3MsOxqAaZDS369,,,,,2,r,,,,,,,3,,1728,DEBUGV2,,0.0-11.0-1.0-0.0,0,,,0,,,,,,,,,,,,,,,,,,,,,,,,"<div style=""font-size:60px;"">+</div>",,,,,,,,DEBUGV2,,,fixation,,,,,28387,0.48,462,html-keyboard-response,,,,,,,,2562
DEBUGV2,HVZwIJVElID6Wd46US76,0,False,,,2,r,False,False,,,j,T_target,3,,1728,DEBUGV2,1 (594).jpg,0.0-5.0-10.0-0.17,0,False,True,0,False,True,True,False,True,True,False,1,1,False,,0,,,1,,,,0,,,,,images/1 (594).jpg,B,B,,14,14,0,,DEBUGV2,,,initialTest_response,18,18,0,0,21904,0.38,68,image-keyboard-response,1,1,0,"current target, not in next trial",,,,2562
DEBUGV2,HZxEEFryoVLtUipfbXty,,True,,,2,r,,,,,,T_target,3,,1728,DEBUGV2,1 (2086).jpg,0.0-11.0-2.0-0.11,0,True,True,0,,True,True,False,True,True,True,7,7,8,5,0,,,1,,,,,,,,,images/1 (2086).jpg,Dn+1,Dn,,12,12,0,,DEBUGV2,,,initial_study,9,9,15,209,28529,0.49,474,image-keyboard-response,1,1,1,"current target, in next trial",,,,2562
DEBUGV2,Ha3BU9W2hu4pu2LQ8GBg,0,False,,,2,r,False,False,,,j,T_target,3,,1728,DEBUGV2,1 (957).jpg,0.0-8.0-10.0-0.18,0,False,True,0,False,True,True,False,True,True,False,4,4,False,,0,,,1,,,,0,,,,,images/1 (957).jpg,B,B,,11,11,0,,DEBUGV2,,,initialTest_response,19,19,0,0,25604,0.44,297,image-keyboard-response,1,1,0,"current target, not in next trial",,,,2562
DEBUGV2,Hbh2DWSqu3c8UVh9qkhU,0,True,,,2,r,False,False,,,j,T_target,3,,1728,DEBUGV2,1 (1599).jpg,0.0-9.0-10.0-0.15,0,True,True,0,False,True,True,False,True,True,True,5,5,6,,0,,,1,,,,0,,,,,images/1 (1599).jpg,Dn+1,Dn,,14,14,0,,DEBUGV2,,,initialTest_response,16,16,9,30,26761,0.46,370,image-keyboard-response,1,1,1,"current target, in next trial",,,,2562
DEBUGV2,HhiFDKGXic0wCdnM5hZq,0,False,,,2,r,False,False,,,f,T_foil,3,,1728,DEBUGV2,1 (1588).jpg,0.0-13.0-10.0-0.4,0,True,True,0,False,False,False,False,True,True,False,9,9,False,5,0,,,1,,,,0,,,,,images/1 (1588).jpg,Fn+1,Fn,,0,0,0,,DEBUGV2,,,initialTest_response,5,5,0,230,31504,0.54,663,image-keyboard-response,0,1,0,"tested only, not in next trial",,,,2562
DEBUGV2,HiFXnDfqN3ICy7KlZo8h,,False,,,2,r,,,,,,T_target,3,,1728,DEBUGV2,1 (1527).jpg,0.0-5.0-2.0-0.29,0,True,True,0,,True,True,False,True,True,False,1,1,0,1,0,,,1,,,,,,,,,images/1 (1527).jpg,B,B,,30,30,0,,DEBUGV2,,,initial_study,24,24,0,34,21352,0.37,36,image-keyboard-response,1,1,0,"current target, not in next trial",,,,2562
DEBUGV2,HjNVIFpvHUerW0o4r2up,0,True,,,2,r,False,False,False,,f,T_foil,3,,1728,DEBUGV2,1 (2125).jpg,0.0-13.0-10.0-0.13,0,True,False,0,False,False,False,False,True,False,True,9,8,9,,0,,,2,,,,0,,,,,images/1 (2125).jpg,Fnn,Fnn,,0,0,0,,DEBUGV2,,,initialTest_response,14,0,14,125,31710,0.54,672,image-keyboard-response,0,1,1,"tested only, in next trial, from last trial",,,,2562
DEBUGV2,Hks0HvqrvA6QDLhHbf2N,0,False,,,2,r,False,False,,,f,T_foil,3,,1728,DEBUGV2,1 (380).jpg,0.0-6.0-10.0-0.10,0,False,True,0,False,False,False,False,True,True,False,2,2,False,,0,,,1,,,,0,,,,,images/1 (380).jpg,Fn+1,Fn,,0,0,0,,DEBUGV2,,,initialTest_response,11,11,0,0,22961,0.39,137,image-keyboard-response,0,1,0,"tested only, not in next trial",,,,2562
DEBUGV2,HnAoTTkSmafUFAnUyZqy,,False,,,2,r,,,,,,T_nontarget,3,,1728,DEBUGV2,1 (2197).jpg,0.0-12.0-2.0-0.0,0,True,True,0,,True,True,False,False,False,False,8,8,0,3,0,,,1,,,,,,,,,images/1 (2197).jpg,A,A,,1,1,0,,DEBUGV2,,,initial_study,0,0,0,112,29641,0.50,539,image-keyboard-response,1,0,0,"studied only, not in trial",,,,2562
DEBUGV2,HrO3m9XF7i5xXRemb5GP,0,False,,,2,r,False,False,,,f,T_foil,3,,1728,DEBUGV2,1 (1641).jpg,0.0-5.0-10.0-0.20,0,True,True,0,False,False,False,False,True,True,False,1,1,False,2,0,,,1,,,,0,,,,,images/1 (1641).jpg,Fn+1,Fn,,0,0,0,,DEBUGV2,,,initialTest_response,21,21,0,97,21974,0.38,71,image-keyboard-response,0,1,0,"tested only, not in next trial",,,,2562
DEBUGV2,HwCSTAZzcuTwqsIjM5G5,,False,,,2,r,,,,,,T_target,3,,1728,DEBUGV2,1 (1378).jpg,0.0-12.0-2.0-0.14,0,False,True,0,,True,True,False,True,True,False,8,8,0,,0,,,1,,,,,,,,,images/1 (1378).jpg,B,B,,15,15,0,,DEBUGV2,,,initial_study,1,1,0,0,29814,0.51,553,image-keyboard-response,1,1,0,"current target, not in next trial",,,,2562
DEBUGV2,HxXnvbeGyHG8A58ZfIZp,,False,,,2,r,,,,,,T_target,3,,1728,DEBUGV2,1 (1418).jpg,0.0-13.0-2.0-0.10,0,True,True,0,,True,True,False,True,True,False,9,9,0,1,0,,,1,,,,,,,,,images/1 (1418).jpg,B,B,,11,11,0,,DEBUGV2,,,initial_study,1,1,0,23,31018,0.53,625,image-keyboard-response,1,1,0,"current target, not in next trial",,,,2562
DEBUGV2,I3SfpSh8uAqdfbKot6ll,,False,,,2,r,,,,,,T_target,3,,1728,DEBUGV2,1 (2024).jpg,0.0-6.0-2.0-0.22,0,True,True,0,,True,True,False,True,True,False,2,2,0,1,0,,,1,,,,,,,,,images/1 (2024).jpg,B,B,,23,23,0,,DEBUGV2,,,initial_study,10,10,0,38,22479,0.39,105,image-keyboard-response,1,1,0,"current target, not in next trial",,,,2562
DEBUGV2,ICdXifEY1DOacUjX6R6c,,False,,,2,r,,,,,,T_nontarget,3,,1728,DEBUGV2,1 (646).jpg,0.0-9.0-2.0-0.1,0,True,True,0,,True,True,False,False,False,False,5,5,0,10,0,,,1,,,,,,,,,images/1 (646).jpg,A,A,,2,2,0,,DEBUGV2,,,initial_study,0,0,0,456,25917,0.44,312,image-keyboard-response,1,0,0,"studied only, not in trial",,,,2562
DEBUGV2,IEjvHr06cYfvXGeUVhTM,0,True,,,2,r,False,False,,,j,T_target,3,,1728,DEBUGV2,1 (176).jpg,0.0-9.0-10.0-0.25,0,True,True,0,False,True,True,False,True,True,True,5,5,6,,0,,,1,,,,0,,,,,images/1 (176).jpg,Dn+1,Dn,,4,4,0,,DEBUGV2,,,initialTest_response,26,26,3,63,26998,0.46,380,image-keyboard-response,1,1,1,"current target, in next trial",,,,2562
DEBUGV2,Ib0bbG2ci9N0qCMgUESv,,False,,,2,r,,,,,,T_target,3,,1728,DEBUGV2,1 (930).jpg,0.0-8.0-2.0-0.19,0,False,True,0,,True,True,False,True,True,False,4,4,0,,0,,,1,,,,,,,,,images/1 (930).jpg,B,B,,20,20,0,,DEBUGV2,,,initial_study,10,10,0,0,24904,0.43,254,image-keyboard-response,1,1,0,"current target, not in next trial",,,,2562
DEBUGV2,IwNTdW5I4azOy7lYjcKK,,False,,,2,r,,,,,,T_target,3,,1728,DEBUGV2,1 (2043).jpg,0.0-7.0-2.0-0.7,0,True,True,0,,True,True,False,True,True,False,3,3,0,9,0,,,1,,,,,,,,,images/1 (2043).jpg,B,B,,8,8,0,,DEBUGV2,,,initial_study,20,20,0,424,23524,0.40,166,image-keyboard-response,1,1,0,"current target, not in next trial",,,,2562
DEBUGV2,J00ycYbI99Gm3uDXEPnj,,,,,2,r,,,,,,,3,,1728,DEBUGV2,,0.0-7.0-5.0-0.5,0,,,0,,,,,,,,3,,,,,,,,,6,,,,,,,7,,,7,,,,,DEBUGV2,,54,digitPresentation,,,,,23882,0.41,196,html-keyboard-response,,,,,,,,2562
DEBUGV2,J4QzvaGVDDIYV3aMBp4a,0,True,,,2,r,False,,False,,f,T_foil,3,,1728,DEBUGV2,1 (316).jpg,0.0-6.0-10.0-0.28,0,False,False,0,False,False,True,False,True,False,True,2,1,2,,0,,,2,,,,0,,,,,images/1 (316).jpg,Cn,Cn,,0,3,0,,DEBUGV2,,,initialTest_response,29,0,29,0,23371,0.40,155,image-keyboard-response,1,0,1,"studied only, in next trial, from last trial",,,,2562
DEBUGV2,J6iXZlbJdf9TJQ62uYR5,,,,,2,r,,,,,,,3,,1728,DEBUGV2,,0.0-11.0-5.0-0.3,0,,,0,,,,,,,,7,,,,,,,,,4,,,,,,,7,,,7,,,,,DEBUGV2,,52,digitPresentation,,,,,28819,0.49,498,html-keyboard-response,,,,,,,,2562
DEBUGV2,JQ94XtV3SP3tnOw7e2Qp,0,True,,,2,r,False,,False,,f,T_foil,3,,1728,DEBUGV2,1 (496).jpg,0.0-6.0-10.0-0.22,0,True,False,0,False,False,True,False,True,False,True,2,1,2,,0,,,2,,,,0,,,,,images/1 (496).jpg,Cn,Cn,,0,26,0,,DEBUGV2,,,initialTest_response,23,0,23,155,23240,0.40,149,image-keyboard-response,1,0,1,"studied only, in next trial, from last trial",,,,2562
DEBUGV2,JfGwhJh4Wu1JVJ4zCJ6t,0,False,,,2,r,False,False,,,j,T_target,3,,1728,DEBUGV2,1 (1020).jpg,0.0-8.0-10.0-0.27,0,False,True,0,False,True,True,False,True,True,False,4,4,False,,0,,,1,,,,0,,,,,images/1 (1020).jpg,B,B,,4,4,0,,DEBUGV2,,,initialTest_response,28,28,0,0,25812,0.44,306,image-keyboard-response,1,1,0,"current target, not in next trial",,,,2562
DEBUGV2,JjZL06qHAa288DhAOD7X,0,False,,,2,r,False,False,,,f,T_foil,3,,1728,DEBUGV2,1 (486).jpg,0.0-9.0-10.0-0.9,0,False,True,0,False,False,False,False,True,True,False,5,5,False,,0,,,1,,,,0,,,,,images/1 (486).jpg,Fn+1,Fn,,0,0,0,,DEBUGV2,,,initialTest_response,10,10,0,0,26628,0.45,364,image-keyboard-response,0,1,0,"tested only, not in next trial",,,,2562
DEBUGV2,JoCvsyzbkC3h98Gvhz6X,0,False,,,2,r,False,False,,,j,T_target,3,,1728,DEBUGV2,1 (2131).jpg,0.0-7.0-10.0-0.5,0,True,True,0,False,True,True,False,True,True,False,3,3,False,,0,,,1,,,,0,,,,,images/1 (2131).jpg,B,B,,28,28,0,,DEBUGV2,,,initialTest_response,6,6,0,76,24077,0.41,208,image-keyboard-response,1,1,0,"current target, not in next trial",,,,2562
DEBUGV2,JqItnuU8WgGQBREIb4Jk,,,,,2,r,,,,,,,3,,1728,DEBUGV2,,0.0-11.0-8.0-0.0,0,,,0,,,,,,,,,,,,,,,,,,,,,,,,Now judge if you have seen this pictures from the list you JUST studied before the digits,,,,,,,,DEBUGV2,,,prompt,,,,,28906,0.49,505,html-keyboard-response,,,,,,,,2562
DEBUGV2,JtKVE86vIiOLGtAhO3Xr,,False,,,2,r,,,,,,T_target,3,,1728,DEBUGV2,1 (242).jpg,0.0-11.0-2.0-0.19,0,False,True,0,,True,True,False,True,True,False,7,7,0,,0,,,1,,,,,,,,,images/1 (242).jpg,B,B,,20,20,0,,DEBUGV2,,,initial_study,20,20,0,0,28630,0.49,482,image-keyboard-response,1,1,0,"current target, not in next trial",,,,2562
DEBUGV2,Jx5bQDjzhFp8AU0ZGb45,0,False,,,2,r,False,False,,,f,T_foil,3,,1728,DEBUGV2,1 (515).jpg,0.0-5.0-10.0-0.26,0,False,True,0,False,False,False,False,True,True,False,1,1,False,,0,,,1,,,,0,,,,,images/1 (515).jpg,Fn+1,Fn,,0,0,0,,DEBUGV2,,,initialTest_response,27,27,0,0,22107,0.38,77,image-keyboard-response,0,1,0,"tested only, not in next trial",,,,2562
DEBUGV2,K8Iw0mji9soYnOfHBzNq,,False,,,2,r,,,,,,T_nontarget,3,,1728,DEBUGV2,1 (1836).jpg,0.0-8.0-2.0-0.11,0,False,True,0,,True,True,False,False,False,False,4,4,0,,0,,,1,,,,,,,,,images/1 (1836).jpg,A,A,,12,12,0,,DEBUGV2,,,initial_study,0,0,0,0,24812,0.42,246,image-keyboard-response,1,0,0,"studied only, not in trial",,,,2562
DEBUGV2,KJOCraLFawT4No5RQ87V,0,True,,,2,r,False,False,False,,f,T_foil,3,,1728,DEBUGV2,1 (1635).jpg,0.0-12.0-10.0-0.28,0,True,False,0,False,False,False,False,True,False,True,8,7,8,,0,,,2,,,,0,,,,,images/1 (1635).jpg,Fnn,Fnn,,0,0,0,,DEBUGV2,,,initialTest_response,29,0,29,115,30834,0.52,611,image-keyboard-response,0,1,1,"tested only, in next trial, from last trial",,,,2562
DEBUGV2,KOIMFFWqiGxi6KCfV2HF,,,,,2,r,False,,,52,,,3,,1728,DEBUGV2,,0.0-10.0-6.0-0.0-0.0,0,,,0,,,,,,,,,,,,,,,,,,,,"{'answer': 'Skipped after 0.01 seconds', 'question': ""Please enter the sum using your number keyboard <p>Press 'enter' to continue.</p>""}",Please enter the sum using your number keyboard <p>Press 'enter' to continue.</p>,,,,,,,,,,,DEBUGV2,,,answer_counting,,,,,27617,0.47,427,survey-text,,,,,,,,2562
DEBUGV2,KZganJQm2l7M6pB2oxZ4,,,,,2,r,,,,,,,3,,1728,DEBUGV2,,0.0-10.0-5.0-0.2,0,,,0,,,,,,,,6,,,,,,,,,3,,,,,,,7,,,7,,,,,DEBUGV2,,52,digitPresentation,,,,,27537,0.47,421,html-keyboard-response,,,,,,,,2562
DEBUGV2,KgZXvDyUlYYsuUYXThXV,,True,,,2,r,,,,,,T_target,3,,1728,DEBUGV2,1 (686).jpg,0.0-12.0-2.0-0.3,0,False,True,0,,True,True,False,True,True,True,8,8,9,,0,,,1,,,,,,,,,images/1 (686).jpg,Dn+1,Dn,,4,4,0,,DEBUGV2,,,initial_study,19,19,4,0,29676,0.51,542,image-keyboard-response,1,1,1,"current target, in next trial",,,,2562
DEBUGV2,KgfIkOnHMGdDLcmDyKRQ,,False,,,2,r,,,,,,T_target,3,,1728,DEBUGV2,1 (361).jpg,0.0-9.0-2.0-0.27,0,True,True,0,,True,True,False,True,True,False,5,5,0,4,0,,,1,,,,,,,,,images/1 (361).jpg,B,B,,28,28,0,,DEBUGV2,,,initial_study,23,23,0,194,26240,0.45,338,image-keyboard-response,1,1,0,"current target, not in next trial",,,,2562
DEBUGV2,Kgynkhg7BnjgzRdae77h,,False,,,2,r,,,,,,T_target,3,,1728,DEBUGV2,1 (985).jpg,0.0-6.0-2.0-0.3,0,False,True,0,,True,True,False,True,True,False,2,2,0,,0,,,1,,,,,,,,,images/1 (985).jpg,B,B,,4,4,0,,DEBUGV2,,,initial_study,18,18,0,0,22260,0.38,86,image-keyboard-response,1,1,0,"current target, not in next trial",,,,2562
DEBUGV2,KxMK4t9DyzmAq1UYZulT,0,False,,,2,r,False,False,,,j,T_target,3,,1728,DEBUGV2,1 (1204).jpg,0.0-11.0-10.0-0.14,0,True,True,0,False,True,True,False,True,True,False,7,7,False,,0,,,1,,,,0,,,,,images/1 (1204).jpg,B,B,,19,19,0,,DEBUGV2,,,initialTest_response,15,15,0,123,29244,0.50,521,image-keyboard-response,1,1,0,"current target, not in next trial",,,,2562
DEBUGV2,L0JgLgWrg22eWbTUKRop,,,,,2,r,,,,,,,3,,1728,DEBUGV2,,0.0-6.0-8.0-0.0,0,,,0,,,,,,,,,,,,,,,,,,,,,,,,Now judge if you have seen this pictures from the list you JUST studied before the digits,,,,,,,,DEBUGV2,,,prompt,,,,,22717,0.39,125,html-keyboard-response,,,,,,,,2562
DEBUGV2,L4c6AvwDrqNKCwYpRg3w,0,False,,,2,r,False,False,,,j,T_target,3,,1728,DEBUGV2,1 (639).jpg,0.0-9.0-10.0-0.2,0,False,True,0,False,True,True,False,True,True,False,5,5,False,,0,,,1,,,,0,,,,,images/1 (639).jpg,B,B,,20,20,0,,DEBUGV2,,,initialTest_response,3,3,0,0,26474,0.45,357,image-keyboard-response,1,1,0,"current target, not in next trial",,,,2562
DEBUGV2,L7gHYQoN0Bnv1JaD2uxQ,,False,,,2,r,,,,,,T_target,3,,1728,DEBUGV2,1 (1942).jpg,0.0-6.0-2.0-0.24,0,True,True,0,,True,True,False,True,True,False,2,2,0,4,0,,,1,,,,,,,,,images/1 (1942).jpg,B,B,,25,25,0,,DEBUGV2,,,initial_study,30,30,0,170,22503,0.39,107,image-keyboard-response,1,1,0,"current target, not in next trial",,,,2562
DEBUGV2,LG9XAZpLA5XORDLnqIUd,,False,,,2,r,,,,,,T_nontarget,3,,1728,DEBUGV2,1 (723).jpg,0.0-12.0-2.0-0.20,0,True,True,0,,True,True,False,False,False,False,8,8,0,1,0,,,1,,,,,,,,,images/1 (723).jpg,A,A,,21,21,0,,DEBUGV2,,,initial_study,0,0,0,48,29887,0.51,559,image-keyboard-response,1,0,0,"studied only, not in trial",,,,2562
DEBUGV2,LItG8HEJFDV4F6s9BLWC,,,,,2,r,,,,,,,3,,1728,DEBUGV2,,0.0-7.0-1.0-0.0,0,,,0,,,,,,,,,,,,,,,,,,,,,,,,"<div style=""font-size:60px;"">+</div>",,,,,,,,DEBUGV2,,,fixation,,,,,23423,0.40,158,html-keyboard-response,,,,,,,,2562
DEBUGV2,LM3sTjvwzwNntuXJYXFn,,,,,2,r,,,,,,,3,,1728,DEBUGV2,,0.0-14.0-3.0-0.0,0,,,0,,,,,,,,,,,,,,,,,,,,,,,,Summing up the digits as they appear,,,,,,,,DEBUGV2,,,prompt,,,,,32508,0.55,721,html-keyboard-response,,,,,,,,2562
DEBUGV2,LOYLocopQQGjVRewPASZ,,False,,,2,r,,,,,,T_nontarget,3,,1728,DEBUGV2,1 (393).jpg,0.0-7.0-2.0-0.4,0,True,True,0,,True,True,False,False,False,False,3,3,0,9,0,,,1,,,,,,,,,images/1 (393).jpg,A,A,,5,5,0,,DEBUGV2,,,initial_study,0,0,0,426,23483,0.40,163,image-keyboard-response,1,0,0,"studied only, not in trial",,,,2562
DEBUGV2,LPBHrJbtvp89d33L37hm,,False,,,2,r,,,,,,T_target,3,,1728,DEBUGV2,1 (574).jpg,0.0-9.0-2.0-0.16,0,True,True,0,,True,True,False,True,True,False,5,5,0,5,0,,,1,,,,,,,,,images/1 (574).jpg,B,B,,17,17,0,,DEBUGV2,,,initial_study,8,8,0,247,26098,0.45,327,image-keyboard-response,1,1,0,"current target, not in next trial",,,,2562
DEBUGV2,LcyrzaFtkG57jO0zRpgV,,False,,,2,r,,,,,,T_target,3,,1728,DEBUGV2,1 (2290).jpg,0.0-11.0-2.0-0.29,0,True,True,0,,True,True,False,True,True,False,7,7,0,1,0,,,1,,,,,,,,,images/1 (2290).jpg,B,B,,30,30,0,,DEBUGV2,,,initial_study,10,10,0,43,28754,0.49,492,image-keyboard-response,1,1,0,"current target, not in next trial",,,,2562
DEBUGV2,LgyYHwpxtaIRtQLFHldh,,False,,,2,r,,,,,,T_target,3,,1728,DEBUGV2,1 (1975).jpg,0.0-8.0-2.0-0.8,0,True,True,0,,True,True,False,True,True,False,4,4,0,9,0,,,1,,,,,,,,,images/1 (1975).jpg,B,B,,9,9,0,,DEBUGV2,,,initial_study,26,26,0,405,24779,0.42,243,image-keyboard-response,1,1,0,"current target, not in next trial",,,,2562
DEBUGV2,Li3ILsdRN6XTO4PHXxfu,,False,,,2,r,,,,,,T_target,3,,1728,DEBUGV2,1 (457).jpg,0.0-11.0-2.0-0.15,0,False,True,0,,True,True,False,True,True,False,7,7,0,,0,,,1,,,,,,,,,images/1 (457).jpg,B,B,,16,16,0,,DEBUGV2,,,initial_study,14,14,0,0,28585,0.49,478,image-keyboard-response,1,1,0,"current target, not in next trial",,,,2562
DEBUGV2,LmQPddGVmOl2NNrWdZnu,,False,,,2,r,,,,,,T_nontarget,3,,1728,DEBUGV2,1 (931).jpg,0.0-13.0-2.0-0.4,0,False,True,0,,True,True,False,False,False,False,9,9,0,,0,,,1,,,,,,,,,images/1 (931).jpg,A,A,,5,5,0,,DEBUGV2,,,initial_study,0,0,0,0,30950,0.53,619,image-keyboard-response,1,0,0,"studied only, not in trial",,,,2562
DEBUGV2,Loadskeq6y1DmpdDsvHd,,,,,2,r,,,,,,,3,,1728,DEBUGV2,,0.0-8.0-7.0-0.0,0,,,0,,,,,,,,,,,,,,,,,,,,,,,,<p background:white>INCORRECT!</p>,,,,,,,,DEBUGV2,,,promptfeedback,,,,,25160,0.43,276,html-keyboard-response,,,,,,,,2562
DEBUGV2,M1bz1XVO2bhKYHXEt9Ra,,,,,2,r,,,,,,,3,,1728,DEBUGV2,,0.0-5.0-1.0-0.0,0,,,0,,,,,,,,,,,,,,,,,,,,,,,,"<div style=""font-size:60px;"">+</div>",,,,,,,,DEBUGV2,,,fixation,,,,,20984,0.36,6,html-keyboard-response,,,,,,,,2562
DEBUGV2,M4Z8UC93WUpslzaGN6dG,,,,,2,r,,,,,,,3,,1728,DEBUGV2,,0.0-5.0-7.0-0.0,0,,,0,,,,,,,,,,,,,,,,,,,,,,,,<p background:white>INCORRECT!</p>,,,,,,,,DEBUGV2,,,promptfeedback,,,,,21488,0.37,48,html-keyboard-response,,,,,,,,2562
DEBUGV2,M8wYHIGDnjf10s6gChty,,False,,,2,r,,,,,,T_target,3,,1728,DEBUGV2,1 (666).jpg,0.0-5.0-2.0-0.16,0,True,True,0,,True,True,False,True,True,False,1,1,0,7,0,,,1,,,,,,,,,images/1 (666).jpg,B,B,,17,17,0,,DEBUGV2,,,initial_study,2,2,0,336,21180,0.36,23,image-keyboard-response,1,1,0,"current target, not in next trial",,,,2562
DEBUGV2,MF53QfgCUlI8ovSyhIzF,0,True,,,2,r,False,False,False,,f,T_foil,3,,1728,DEBUGV2,1 (1388).jpg,0.0-6.0-10.0-0.16,0,False,False,0,False,False,True,False,True,True,True,2,1,2,,0,,,2,,,,0,,,,,images/1 (1388).jpg,Dn,Dn,,0,25,0,,DEBUGV2,,,initialTest_response,17,25,17,0,23100,0.40,143,image-keyboard-response,1,1,1,"current target, in next trial, from last trial",,,,2562
DEBUGV2,MGiH8aRw0M09RxiyVIuF,,True,,,2,r,,,,,,T_nontarget,3,,1728,DEBUGV2,1 (448).jpg,0.0-13.0-2.0-0.9,0,True,True,0,,True,True,False,False,False,True,9,9,10,6,0,,,1,,,,,,,,,images/1 (448).jpg,Cn+1,Cn,,10,10,0,,DEBUGV2,,,initial_study,0,0,19,256,31007,0.53,624,image-keyboard-response,1,0,1,"studied only, in next trial",,,,2562
DEBUGV2,MJ1Yn1qSk65rcbC7PLDf,,,,,2,r,,,,,,,3,,1728,DEBUGV2,,0.0-14.0-5.0-0.7,0,,,0,,,,,,,,10,,,,,,,,,8,,,,,,,6,,,6,,,,,DEBUGV2,,56,digitPresentation,,,,,32607,0.55,730,html-keyboard-response,,,,,,,,2562
DEBUGV2,ML5NDZkTgajTBbHGlKfO,,False,,,2,r,,,,,,T_nontarget,3,,1728,DEBUGV2,1 (273).jpg,0.0-7.0-2.0-0.0,0,False,True,0,,True,True,False,False,False,False,3,3,0,,0,,,1,,,,,,,,,images/1 (273).jpg,A,A,,1,1,0,,DEBUGV2,,,initial_study,0,0,0,0,23434,0.40,159,image-keyboard-response,1,0,0,"studied only, not in trial",,,,2562
DEBUGV2,MP70GbIVcZiTiP2hgqsj,,,,,2,r,,,,,,,3,,1728,DEBUGV2,,0.0-14.0-5.0-0.2,0,,,0,,,,,,,,10,,,,,,,,,3,,,,,,,5,,,5,,,,,DEBUGV2,,56,digitPresentation,,,,,32553,0.55,725,html-keyboard-response,,,,,,,,2562
DEBUGV2,MVA2KRZfSnI1C4jJ0uiZ,0,False,,,2,r,False,False,,,j,T_target,3,,1728,DEBUGV2,1 (730).jpg,0.0-8.0-10.0-0.17,0,True,True,0,False,True,True,False,True,True,False,4,4,False,,0,,,1,,,,0,,,,,images/1 (730).jpg,B,B,,10,10,0,,DEBUGV2,,,initialTest_response,18,18,0,143,25582,0.44,296,image-keyboard-response,1,1,0,"current target, not in next trial",,,,2562
DEBUGV2,MWQLA1fTbivgNbozKbOO,,True,,,2,r,,,,,,T_target,3,,1728,DEBUGV2,1 (381).jpg,0.0-6.0-2.0-0.10,0,True,True,0,,True,True,False,True,True,True,2,2,3,7,0,,,1,,,,,,,,,images/1 (381).jpg,Dn+1,Dn,,11,11,0,,DEBUGV2,,,initial_study,5,5,4,344,22344,0.38,93,image-keyboard-response,1,1,1,"current target, in next trial",,,,2562
DEBUGV2,MaqtzdghMu5hlBaLM5kz,,True,,,2,r,,,,,,T_nontarget,3,,1728,DEBUGV2,1 (824).jpg,0.0-10.0-2.0-0.11,0,True,True,0,,True,True,False,False,False,True,6,6,7,2,0,,,1,,,,,,,,,images/1 (824).jpg,Cn+1,Cn,,12,12,0,,DEBUGV2,,,initial_study,0,0,7,106,27262,0.46,398,image-keyboard-response,1,0,1,"studied only, in next trial",,,,2562
DEBUGV2,MeD6UbpdFJsywGvcrWA9,,True,,,2,r,,,,,,T_target,3,,1728,DEBUGV2,1 (218).jpg,0.0-7.0-2.0-0.15,0,False,True,0,,True,True,False,True,True,True,3,3,4,,0,,,1,,,,,,,,,images/1 (218).jpg,Dn+1,Dn,,16,16,0,,DEBUGV2,,,initial_study,9,9,22,0,23617,0.40,174,image-keyboard-response,1,1,1,"current target, in next trial",,,,2562
DEBUGV2,Mjzb6XE34d5CI9hm1ZAi,0,True,,,2,r,False,False,False,,f,T_foil,3,,1728,DEBUGV2,1 (1808).jpg,0.0-10.0-10.0-0.18,0,True,False,0,False,False,False,False,True,False,True,6,5,6,,0,,,2,,,,0,,,,,images/1 (1808).jpg,Fnn,Fnn,,0,0,0,,DEBUGV2,,,initialTest_response,19,0,19,312,28093,0.48,449,image-keyboard-response,0,1,1,"tested only, in next trial, from last trial",,,,2562
DEBUGV2,MlO7AbjocaYXVE5u7bxR,,True,,,2,r,,,,,,T_target,3,,1728,DEBUGV2,1 (334).jpg,0.0-12.0-2.0-0.22,0,True,True,0,,True,True,False,True,True,True,8,8,9,2,0,,,1,,,,,,,,,images/1 (334).jpg,Dn+1,Dn,,23,23,0,,DEBUGV2,,,initial_study,21,21,9,75,29911,0.51,561,image-keyboard-response,1,1,1,"current target, in next trial",,,,2562
DEBUGV2,Mp9kbg1ObVq3XDmG5jA4,,False,,,2,r,,,,,,T_target,3,,1728,DEBUGV2,1 (2137).jpg,0.0-6.0-2.0-0.23,0,True,True,0,,True,True,False,True,True,False,2,2,0,6,0,,,1,,,,,,,,,images/1 (2137).jpg,B,B,,24,24,0,,DEBUGV2,,,initial_study,13,13,0,300,22491,0.39,106,image-keyboard-response,1,1,0,"current target, not in next trial",,,,2562
DEBUGV2,MtluiCitQRAjDiZIw1t0,,,,,2,r,,,,,,,3,,1728,DEBUGV2,,0.0-10.0-5.0-0.7,0,,,0,,,,,,,,6,,,,,,,,,8,,,,,,,8,,,8,,,,,DEBUGV2,,52,digitPresentation,,,,,27599,0.47,426,html-keyboard-response,,,,,,,,2562
DEBUGV2,MxcW6TSZFIyAuogdzYIN,0,False,,,2,r,False,False,,,j,T_target,3,,1728,DEBUGV2,1 (1716).jpg,0.0-7.0-10.0-0.16,0,True,True,0,False,True,True,False,True,True,False,3,3,False,,0,,,1,,,,0,,,,,images/1 (1716).jpg,B,B,,4,4,0,,DEBUGV2,,,initialTest_response,17,17,0,305,24331,0.42,219,image-keyboard-response,1,1,0,"current target, not in next trial",,,,2562
DEBUGV2,N0FaKaE7gcr2X3aNPqAZ,,True,,,2,r,,,,,,T_target,3,,1728,DEBUGV2,1 (1388).jpg,0.0-5.0-2.0-0.24,0,False,True,0,,True,True,False,True,True,True,1,1,2,,0,,,1,,,,,,,,,images/1 (1388).jpg,Dn+1,Dn,,25,25,0,,DEBUGV2,,,initial_study,19,19,17,0,21277,0.37,31,image-keyboard-response,1,1,1,"current target, in next trial",,,,2562
DEBUGV2,N5ToIn9IWZ7S5mynJcxz,,False,,,2,r,,,,,,T_target,3,,1728,DEBUGV2,1 (2127).jpg,0.0-10.0-2.0-0.15,0,True,True,0,,True,True,False,True,True,False,6,6,0,5,0,,,1,,,,,,,,,images/1 (2127).jpg,B,B,,16,16,0,,DEBUGV2,,,initial_study,25,25,0,221,27309,0.47,402,image-keyboard-response,1,1,0,"current target, not in next trial",,,,2562
DEBUGV2,NIwAk7vYIgCB3qz8F7KT,0,True,,,2,r,False,False,,,f,T_foil,3,,1728,DEBUGV2,1 (1808).jpg,0.0-9.0-10.0-0.27,0,True,True,0,False,False,False,False,True,True,True,5,5,6,7,0,,,1,,,,0,,,,,images/1 (1808).jpg,Fnn+1,Fnn,,0,0,0,,DEBUGV2,,,initialTest_response,28,28,19,312,27043,0.46,382,image-keyboard-response,0,1,1,"tested only, in next trial",,,,2562
DEBUGV2,NLbxyV98TH9ht4ET5vh1,,,,,2,r,,,,,,,3,,1728,DEBUGV2,,0.0-14.0-7.0-0.0,0,,,0,,,,,,,,,,,,,,,,,,,,,,,,<p background:white>INCORRECT!</p>,,,,,,,,DEBUGV2,,,promptfeedback,,,,,32629,0.55,732,html-keyboard-response,,,,,,,,2562
DEBUGV2,NTT9sDWaS82MSZMu95Ms,,,,,2,r,,,,,,,3,,1728,DEBUGV2,,0.0-7.0-5.0-0.7,0,,,0,,,,,,,,3,,,,,,,,,8,,,,,,,8,,,8,,,,,DEBUGV2,,54,digitPresentation,,,,,23903,0.41,198,html-keyboard-response,,,,,,,,2562
DEBUGV2,NXcqIk0evf1hoThEffJL,,True,,,2,r,,,,,,T_nontarget,3,,1728,DEBUGV2,1 (1992).jpg,0.0-11.0-2.0-0.27,0,True,True,0,,True,True,False,False,False,True,7,7,8,4,0,,,1,,,,,,,,,images/1 (1992).jpg,Cn+1,Cn,,28,28,0,,DEBUGV2,,,initial_study,0,0,14,199,28725,0.49,490,image-keyboard-response,1,0,1,"studied only, in next trial",,,,2562
DEBUGV2,NXfp4rcNkXPUo3cvTg3X,,,,,2,r,,,,,,,3,,1728,DEBUGV2,,0.0-10.0-5.0-0.1,0,,,0,,,,,,,,6,,,,,,,,,2,,,,,,,9,,,9,,,,,DEBUGV2,,52,digitPresentation,,,,,27525,0.47,420,html-keyboard-response,,,,,,,,2562
DEBUGV2,Ni3dRBcMk1toaPgACHbJ,,True,,,2,r,,,,,,T_target,3,,1728,DEBUGV2,1 (822).jpg,0.0-10.0-2.0-0.29,0,False,True,0,,True,True,False,True,True,True,6,6,7,,0,,,1,,,,,,,,,images/1 (822).jpg,Dn+1,Dn,,30,30,0,,DEBUGV2,,,initial_study,14,14,28,0,27482,0.47,416,image-keyboard-response,1,1,1,"current target, in next trial",,,,2562
DEBUGV2,NkhZEKwOysbIiL6l4KMG,,,,,2,r,,,,,,,3,,1728,DEBUGV2,,0.0-13.0-7.0-0.0,0,,,0,,,,,,,,,,,,,,,,,,,,,,,,<p background:white>INCORRECT!</p>,,,,,,,,DEBUGV2,,,promptfeedback,,,,,31379,0.53,656,html-keyboard-response,,,,,,,,2562
DEBUGV2,NobwMPeNMtW3NgsnvNJh,,,,,2,r,,,,,,,3,,1728,DEBUGV2,,0.0-10.0-5.0-0.3,0,,,0,,,,,,,,6,,,,,,,,,4,,,,,,,9,,,9,,,,,DEBUGV2,,52,digitPresentation,,,,,27548,0.47,422,html-keyboard-response,,,,,,,,2562
DEBUGV2,NonAYgA8gn31x8jhAqB4,,,,,2,r,,,,,,,3,,1728,DEBUGV2,,0.0-12.0-4.0-0.0,0,,,0,,,,,,,,,,,,,,,,,,,,,,,,"<div style=""font-size:60px;"">+</div>",,,,,,,,DEBUGV2,,,fixation,,,,,30015,0.51,570,html-keyboard-response,,,,,,,,2562
DEBUGV2,NtaxmJK5Ug7nZX7CiCWV,0,True,,,2,r,False,False,False,,f,T_foil,3,,1728,DEBUGV2,1 (532).jpg,0.0-10.0-10.0-0.1,0,False,False,0,False,False,True,False,True,True,True,6,5,6,,0,,,2,,,,0,,,,,images/1 (532).jpg,Dn,Dn,,0,22,0,,DEBUGV2,,,initialTest_response,2,22,2,0,27686,0.47,432,image-keyboard-response,1,1,1,"current target, in next trial, from last trial",,,,2562
DEBUGV2,NuPMZAWWyKmcosOMM8iu,,False,,,2,r,,,,,,T_nontarget,3,,1728,DEBUGV2,1 (100).jpg,0.0-14.0-2.0-0.16,0,False,True,0,,True,True,False,False,False,False,10,10,0,,0,,,1,,,,,,,,,images/1 (100).jpg,A,A,,17,17,0,,DEBUGV2,,,initial_study,0,0,0,0,32330,0.55,707,image-keyboard-response,1,0,0,"studied only, not in trial",,,,2562
DEBUGV2,O3OEliA8z11oG2Wb4Pa2,,False,,,2,r,,,,,,T_nontarget,3,,1728,DEBUGV2,1 (527).jpg,0.0-12.0-2.0-0.15,0,True,True,0,,True,True,False,False,False,False,8,8,0,1,0,,,1,,,,,,,,,images/1 (527).jpg,A,A,,16,16,0,,DEBUGV2,,,initial_study,0,0,0,22,29826,0.51,554,image-keyboard-response,1,0,0,"studied only, not in trial",,,,2562
