parent_document_id,document_id,HaveSeenImages,accumulated_accuracy,all_accumulated_accuracy,anRepeatedItem,browser,browser_version,codeversion,condition,correct,correct_appear1,correct_appear2,correct_response,correct_response_key,current_assignmentTypesWithinList,designversion,failed_audio,failed_images,failed_video,fullscreen,height,id,id_picName,internal_node_id,is_changedfullscreen,is_chosenFinal,is_currentObjAppear1,is_finished,is_old,is_studied_appear0_initial,is_studied_appear1_initial,is_studied_appear2_initial,is_tested_appear0_initial,is_tested_appear1_initial,is_tested_appear2_initial,listNum_appear0_initial,listNum_appear1_initial,listNum_appear2_initial,listNum_infinalOrder,listNum_pickedFrom,microphone,mobile,num_CurrObjAppear,os,presPos_digit,question_order,recognition_correct,response,responsesum,rt,session_id,stimulus,stimulusConditionName_nPlusOneTrial,stimulusConditions,stimulus_id,studyPos_appear0_initial,studyPos_appear1_initial,studyPos_appear2_initial,study_id,subject_id,success,sum_currList,task,testPos_appear0_initial,testPos_appear1_initial,testPos_appear2_initial,testPos_final,time_elapsed,timeout,timepassed_mins,trial_index,trial_type,type_code_studiedCurr,type_code_testiedCurr,type_code_testiedNext,type_comment,vsync_rate,webaudio,webcam,width
6307f3c967020d1202332b77,02O5Br9e5FRQ3EBc96NI,,0.8947368421052632,,,,,2.3,r,False,,,,f,F,3,,,,,768,6307f3c967020d1202332b77,1 (1026).jpg,0.0-19.0-1.0-0.14,0,True,,0,False,,False,False,,False,False,,0,0,4,6,,,1,,,,0,j,,991,68177c12b166747e3416c165,images/1 (1026).jpg,,FF,,,0,0,6814acf7a2b0960317ac048d,6307f3c967020d1202332b77,,,finalTest,,0,0,171,2007819,,33.47,936,image-keyboard-response,,,,final Foil,,,,1366
6307f3c967020d1202332b77,046SyH4XUz9VAEiokJaW,,,,False,,,2.3,r,,,,,,T_target,3,,,,,768,6307f3c967020d1202332b77,1 (384).jpg,0.0-5.0-2.0-0.16,0,False,True,0,,True,True,False,True,True,False,1,1,0,,0,,,1,,,,,,,,68177c12b166747e3416c165,images/1 (384).jpg,B,B,,17,17,0,6814acf7a2b0960317ac048d,6307f3c967020d1202332b77,,,initial_study,29,29,0,0,258196,,4.31,23,image-keyboard-response,1,1,0,"current target, not in next trial",,,,1366
6307f3c967020d1202332b77,06mt3qfwg8bby2VLrXQ3,,,,False,,,2.3,r,,,,,,T_nontarget,3,,,,,768,6307f3c967020d1202332b77,1 (799).jpg,0.0-7.0-2.0-0.20,0,False,True,0,,True,True,False,False,False,False,3,3,0,,0,,,1,,,,,,,,68177c12b166747e3416c165,images/1 (799).jpg,A,A,,21,21,0,6814acf7a2b0960317ac048d,6307f3c967020d1202332b77,,,initial_study,0,0,0,0,601267,,10.03,179,image-keyboard-response,1,0,0,"studied only, not in trial",,,,1366
6307f3c967020d1202332b77,09vTWa5VLwrV2oHBD5Fd,,0.8666666666666668,,,,,2.3,r,True,,,,f,F,3,,,,,768,6307f3c967020d1202332b77,1 (414).jpg,0.0-16.0-1.0-0.44,0,True,,0,False,,False,False,,False,False,,0,0,1,7,,,1,,,,1,f,,1094,68177c12b166747e3416c165,images/1 (414).jpg,,FF,,,0,0,6814acf7a2b0960317ac048d,6307f3c967020d1202332b77,,,finalTest,,0,0,45,1871471,,31.20,810,image-keyboard-response,,,,final Foil,,,,1366
6307f3c967020d1202332b77,0C4uPrTFA5FhOh94DPCb,,,,False,,,2.3,r,,,,,,T_nontarget,3,,,,,768,6307f3c967020d1202332b77,1 (1340).jpg,0.0-8.0-2.0-0.1,0,False,True,0,,True,True,False,False,False,False,4,4,0,,0,,,1,,,,,,,,68177c12b166747e3416c165,images/1 (1340).jpg,A,A,,2,2,0,6814acf7a2b0960317ac048d,6307f3c967020d1202332b77,,,initial_study,0,0,0,0,705352,,11.76,236,image-keyboard-response,1,0,0,"studied only, not in trial",,,,1366
6307f3c967020d1202332b77,0E3CZngVmijuNyUp1YfU,,0.9230769230769231,,True,,,2.3,r,True,True,True,,f,T_foil,3,,,,,768,6307f3c967020d1202332b77,1 (1332).jpg,0.0-8.0-10.0-0.12,0,True,False,0,False,False,False,False,True,False,True,4,3,4,,0,,,2,,,,1,f,,1110,68177c12b166747e3416c165,images/1 (1332).jpg,Fnn,Fnn,,0,0,0,6814acf7a2b0960317ac048d,6307f3c967020d1202332b77,,,initialTest_response,13,0,13,355,817974,,13.64,291,image-keyboard-response,0,1,1,"tested only, in next trial, from last trial",,,,1366
6307f3c967020d1202332b77,0L916colZizIQhVYkrSl,,0.9166666666666666,,False,,,2.3,r,True,True,,,j,T_target,3,,,,,768,6307f3c967020d1202332b77,1 (1992).jpg,0.0-11.0-10.0-0.11,0,True,True,0,False,True,True,False,True,True,False,7,7,False,,0,,,1,,,,1,j,,1460,68177c12b166747e3416c165,images/1 (1992).jpg,B,B,,11,11,0,6814acf7a2b0960317ac048d,6307f3c967020d1202332b77,,,initialTest_response,12,12,0,448,1259246,,20.99,518,image-keyboard-response,1,1,0,"current target, not in next trial",,,,1366
6307f3c967020d1202332b77,0M3wsqD7TLrujXVGIBZX,,0.4,,True,,,2.3,r,False,False,,,f,T_foil,3,,,,,768,6307f3c967020d1202332b77,1 (1715).jpg,0.0-5.0-10.0-0.4,0,True,True,0,False,False,False,False,True,True,True,1,1,2,1,0,,,1,,,,0,,,,68177c12b166747e3416c165,images/1 (1715).jpg,Fnn+1,Fnn,,0,0,0,6814acf7a2b0960317ac048d,6307f3c967020d1202332b77,,,initialTest_response,5,5,22,8,339581,,5.67,55,image-keyboard-response,0,1,1,"tested only, in next trial",,,,1366
6307f3c967020d1202332b77,0OONlQeHrZQNgnjenYpb,,0.8333333333333334,,,,,2.3,r,False,,,,j,T_nontarget,3,,,,,768,6307f3c967020d1202332b77,1 (893).jpg,0.0-16.0-1.0-0.17,0,True,,0,True,,True,False,,False,False,,5,0,1,0,,,,,,,0,f,,1412,68177c12b166747e3416c165,images/1 (893).jpg,,A,,,13,0,6814acf7a2b0960317ac048d,6307f3c967020d1202332b77,,,finalTest,,0,0,18,1838037,,30.64,783,image-keyboard-response,,,,"studied only, not in trial",,,,1366
6307f3c967020d1202332b77,0PVSonnJmUoxE2UFtP0V,,,,,,,2.3,r,,,,,,,3,,,,,768,6307f3c967020d1202332b77,,0.0-14.0-0.0-0.0,0,,,0,,,,,,,,,,,,,,,,,,,,enter,,2298,68177c12b166747e3416c165,"
    <p style='text-align: justify;color: black;background: white;font: caption-;''>
        Press the 'enter' key to see the next list of pictures. </p>
    ",,,,,,,6814acf7a2b0960317ac048d,6307f3c967020d1202332b77,,,,,,,,1587253,,26.46,689,html-keyboard-response,,,,,,,,1366
6307f3c967020d1202332b77,0Rvn44RJQPnkR8SuK6S3,,0.8854748603351954,,,,,2.3,r,True,,,,j,T_target,3,,,,,768,6307f3c967020d1202332b77,1 (832).jpg,0.0-23.0-1.0-0.9,0,True,,0,True,,True,False,,True,False,,10,0,8,0,,,,,,,1,j,,1149,68177c12b166747e3416c165,images/1 (832).jpg,,B,,,16,0,6814acf7a2b0960317ac048d,6307f3c967020d1202332b77,,,finalTest,,10,0,358,2253614,,37.57,1123,image-keyboard-response,,,,"current target, not in next trial",,,,1366
6307f3c967020d1202332b77,0SBH0OoRMN9SxxAlRmP9,,0.7692307692307693,,True,,,2.3,r,True,True,,,j,T_target,3,,,,,768,6307f3c967020d1202332b77,1 (1525).jpg,0.0-10.0-10.0-0.25,0,False,True,0,False,True,True,False,True,True,True,6,6,7,,0,,,1,,,,1,j,,1393,68177c12b166747e3416c165,images/1 (1525).jpg,Dn+1,Dn,,9,9,0,6814acf7a2b0960317ac048d,6307f3c967020d1202332b77,,,initialTest_response,26,26,1,0,1126744,,18.79,456,image-keyboard-response,1,1,1,"current target, in next trial",,,,1366
6307f3c967020d1202332b77,0VUlWXqlyOPnbXugc5GA,,0.8,,False,,,2.3,r,True,True,,,f,T_foil,3,,,,,768,6307f3c967020d1202332b77,1 (786).jpg,0.0-12.0-10.0-0.4,0,True,True,0,False,False,False,False,True,True,False,8,8,False,3,0,,,1,,,,1,f,,1315,68177c12b166747e3416c165,images/1 (786).jpg,Fn+1,Fn,,0,0,0,6814acf7a2b0960317ac048d,6307f3c967020d1202332b77,,,initialTest_response,5,5,0,121,1401887,,23.37,587,image-keyboard-response,0,1,0,"tested only, not in next trial",,,,1366
6307f3c967020d1202332b77,0aQ3iMUy1CaHP7cXbcEE,,,,False,,,2.3,r,,,,,,T_target,3,,,,,768,6307f3c967020d1202332b77,1 (1300).jpg,0.0-12.0-2.0-0.11,0,True,True,0,,True,True,False,True,True,False,8,8,0,8,0,,,1,,,,,,,,68177c12b166747e3416c165,images/1 (1300).jpg,B,B,,12,12,0,6814acf7a2b0960317ac048d,6307f3c967020d1202332b77,,,initial_study,15,15,0,382,1319775,,22.00,550,image-keyboard-response,1,1,0,"current target, not in next trial",,,,1366
6307f3c967020d1202332b77,0d9kBFmLH73Nu7qnUwJc,,0.8867924528301888,,,,,2.3,r,True,True,False,,j,T_target,3,,,,,768,6307f3c967020d1202332b77,1 (2134).jpg,0.0-16.0-1.0-0.52,0,True,,0,True,,True,False,,True,True,,3,4,1,0,,,,,,,1,j,,956,68177c12b166747e3416c165,images/1 (2134).jpg,,Dn,,,19,0,6814acf7a2b0960317ac048d,6307f3c967020d1202332b77,,,finalTest,,18,28,53,1880466,,31.35,818,image-keyboard-response,,,,"current target, in next trial",,,,1366
6307f3c967020d1202332b77,0dAQw73H2YzsJqFjxllR,,0.908256880733945,,,,,2.3,r,True,,False,,j,T_nontarget,3,,,,,768,6307f3c967020d1202332b77,1 (466).jpg,0.0-18.0-1.0-0.0,0,True,,0,True,,True,False,,False,True,,3,4,3,0,,,,,,,1,j,,796,68177c12b166747e3416c165,images/1 (466).jpg,,Cn,,,20,0,6814acf7a2b0960317ac048d,6307f3c967020d1202332b77,,,finalTest,,0,22,109,1938057,,32.31,874,image-keyboard-response,,,,"studied only, in next trial",,,,1366
6307f3c967020d1202332b77,0dG9uQZIAJQHKW5CoXh8,,0.8826185101580134,,,,,2.3,r,True,,,,f,F,3,,,,,768,6307f3c967020d1202332b77,1 (1649).jpg,0.0-24.0-1.0-0.46,0,True,,0,False,,False,False,,False,False,,0,0,9,3,,,1,,,,1,f,,1192,68177c12b166747e3416c165,images/1 (1649).jpg,,FF,,,0,0,6814acf7a2b0960317ac048d,6307f3c967020d1202332b77,,,finalTest,,0,0,443,2373576,,39.57,1208,image-keyboard-response,,,,final Foil,,,,1366
6307f3c967020d1202332b77,0dOhsuhlJvG3URITKDhD,,,,,,,2.3,r,,,,,,,3,,,,,768,6307f3c967020d1202332b77,,0.0-10.0-7.0-0.0,0,,,0,,,,,,,,,,,,,,,,,,,,,,,68177c12b166747e3416c165,<p background:white>CORRECT!</p>,,,,,,,6814acf7a2b0960317ac048d,6307f3c967020d1202332b77,,,promptfeedback,,,,,1086790,,18.12,428,html-keyboard-response,,,,,,,,1366
6307f3c967020d1202332b77,0xkt25rBCKIQp9WL8U2o,,,,,,,2.3,r,,,,,,,3,,,,,768,6307f3c967020d1202332b77,,0.0-8.0-8.0-0.0,0,,,0,,,,,,,,,,,,,,,,,,,,,,,68177c12b166747e3416c165,Now judge if you have seen this pictures from the list you JUST studied before the digits,,,,,,,6814acf7a2b0960317ac048d,6307f3c967020d1202332b77,,,prompt,,,,,800419,,13.35,277,html-keyboard-response,,,,,,,,1366
6307f3c967020d1202332b77,10hThhYmOiktDjhSVToL,,,,False,,,2.3,r,,,,,,T_target,3,,,,,768,6307f3c967020d1202332b77,1 (519).jpg,0.0-11.0-2.0-0.22,0,False,True,0,,True,True,False,True,True,False,7,7,0,,0,,,1,,,,,,,,68177c12b166747e3416c165,images/1 (519).jpg,B,B,,23,23,0,6814acf7a2b0960317ac048d,6307f3c967020d1202332b77,,,initial_study,26,26,0,0,1187507,,19.80,485,image-keyboard-response,1,1,0,"current target, not in next trial",,,,1366
6307f3c967020d1202332b77,127gwn4Eec1Qnq4EZNBY,,0.8824884792626727,,,,,2.3,r,True,,True,,j,T_nontarget,3,,,,,768,6307f3c967020d1202332b77,1 (828).jpg,0.0-24.0-1.0-0.37,0,True,,0,True,,True,False,,False,True,,7,8,9,0,,,,,,,1,j,,1285,68177c12b166747e3416c165,images/1 (828).jpg,,Cn,,,22,0,6814acf7a2b0960317ac048d,6307f3c967020d1202332b77,,,finalTest,,0,7,434,2360398,,39.35,1199,image-keyboard-response,,,,"studied only, in next trial",,,,1366
6307f3c967020d1202332b77,12m5KJVpQ8aivPVvIPsS,,0.8923076923076924,,,,,2.3,r,True,,,,j,T_nontarget,3,,,,,768,6307f3c967020d1202332b77,1 (1855).jpg,0.0-19.0-1.0-0.38,0,True,,0,True,,True,False,,False,False,,10,0,4,0,,,,,,,1,j,,970,68177c12b166747e3416c165,images/1 (1855).jpg,,A,,,12,0,6814acf7a2b0960317ac048d,6307f3c967020d1202332b77,,,finalTest,,0,0,195,2037422,,33.96,960,image-keyboard-response,,,,"studied only, not in trial",,,,1366
6307f3c967020d1202332b77,15VznHTmCRUx7BwdzF97,,,,,,,2.3,r,,,,,,,3,,,,,768,6307f3c967020d1202332b77,,0.0-13.0-5.0-0.2,0,,,0,,,,,,,,9,,,,,,,,,3,,,,,,68177c12b166747e3416c165,9,,,9,,,,6814acf7a2b0960317ac048d,6307f3c967020d1202332b77,,60,digitPresentation,,,,,1519476,,25.33,649,html-keyboard-response,,,,,,,,1366
6307f3c967020d1202332b77,16gI76oYoB7m6sftuG7F,,0.8928571428571427,,,,,2.3,r,True,,,,j,T_nontarget,3,,,,,768,6307f3c967020d1202332b77,1 (1363).jpg,0.0-22.0-1.0-0.7,0,True,,0,True,,True,False,,False,False,,6,0,7,0,,,,,,,1,j,,1194,68177c12b166747e3416c165,images/1 (1363).jpg,,A,,,12,0,6814acf7a2b0960317ac048d,6307f3c967020d1202332b77,,,finalTest,,0,0,308,2185306,,36.43,1073,image-keyboard-response,,,,"studied only, not in trial",,,,1366
6307f3c967020d1202332b77,1AwuNm7pYpCxgmr6Y1Wf,,0.9166666666666666,,,,,2.3,r,True,,,,f,F,3,,,,,768,6307f3c967020d1202332b77,1 (1986).jpg,0.0-17.0-1.0-0.23,0,True,,0,False,,False,False,,False,False,,0,0,2,10,,,1,,,,1,f,,1003,68177c12b166747e3416c165,images/1 (1986).jpg,,FF,,,0,0,6814acf7a2b0960317ac048d,6307f3c967020d1202332b77,,,finalTest,,0,0,84,1913317,,31.90,849,image-keyboard-response,,,,final Foil,,,,1366
6307f3c967020d1202332b77,1EkV54qs76l0JeIcWT6f,,,,False,,,2.3,r,,,,,,T_target,3,,,,,768,6307f3c967020d1202332b77,1 (2287).jpg,0.0-14.0-2.0-0.8,0,True,True,0,,True,True,False,True,True,False,10,10,0,7,0,,,1,,,,,,,,68177c12b166747e3416c165,images/1 (2287).jpg,B,B,,9,9,0,6814acf7a2b0960317ac048d,6307f3c967020d1202332b77,,,initial_study,30,30,0,303,1607361,,26.80,699,image-keyboard-response,1,1,0,"current target, not in next trial",,,,1366
6307f3c967020d1202332b77,1ItmS09TUKeaca2p5XG6,,,,False,,,2.3,r,,,,,,T_nontarget,3,,,,,768,6307f3c967020d1202332b77,1 (110).jpg,0.0-6.0-2.0-0.28,0,False,True,0,,True,True,False,False,False,False,2,2,0,,0,,,1,,,,,,,,68177c12b166747e3416c165,images/1 (110).jpg,A,A,,29,29,0,6814acf7a2b0960317ac048d,6307f3c967020d1202332b77,,,initial_study,0,0,0,0,470398,,7.85,111,image-keyboard-response,1,0,0,"studied only, not in trial",,,,1366
6307f3c967020d1202332b77,1J40lIMi00hGeEuMw1Kj,,,,,,,2.3,r,,,,,,,3,,,,,641,6307f3c967020d1202332b77,,0.0-1.0,0,,,0,,,,,,,,,,,,,,,,,,,,{'Q0': '6307f3c967020d1202332b77'},,8635,68177c12b166747e3416c165,,,,,,,,6814acf7a2b0960317ac048d,6307f3c967020d1202332b77,,,enterid,,,,,15481,,0.27,1,survey-text,,,,,,,,1366
6307f3c967020d1202332b77,1KfX32CFP0oNIv4ZJ0ir,,0.9333333333333333,,True,,,2.3,r,True,True,,,j,T_target,3,,,,,768,6307f3c967020d1202332b77,1 (53).jpg,0.0-11.0-10.0-0.14,0,True,True,0,False,True,True,False,True,True,True,7,7,8,,0,,,1,,,,1,j,,1531,68177c12b166747e3416c165,images/1 (53).jpg,Dn+1,Dn,,3,3,0,6814acf7a2b0960317ac048d,6307f3c967020d1202332b77,,,initialTest_response,15,15,19,148,1264185,,21.08,521,image-keyboard-response,1,1,1,"current target, in next trial",,,,1366
6307f3c967020d1202332b77,1N4ZbSIxaVTU7uGdcFFm,,0.7931034482758621,,False,,,2.3,r,True,True,,,j,T_target,3,,,,,768,6307f3c967020d1202332b77,1 (1289).jpg,0.0-14.0-10.0-0.28,0,True,True,0,False,True,True,False,True,True,False,10,10,0,,0,,,1,,,,1,j,,1123,68177c12b166747e3416c165,images/1 (1289).jpg,B,B,,7,7,0,6814acf7a2b0960317ac048d,6307f3c967020d1202332b77,,,initialTest_response,29,29,0,122,1728130,,28.81,763,image-keyboard-response,1,1,0,"current target, not in next trial",,,,1366
6307f3c967020d1202332b77,1Rw0Cci2G3Fuu7E8tDzi,,,,,,,2.3,r,,,,,,,3,,,,,768,6307f3c967020d1202332b77,,0.0-6.0-9.0-0.0,0,,,0,,,,,,,,,,,,,,,,,,,,,,,68177c12b166747e3416c165,"<div style=""font-size:60px;"">+</div>",,,,,,,6814acf7a2b0960317ac048d,6307f3c967020d1202332b77,,,fixation,,,,,511632,,8.53,126,html-keyboard-response,,,,,,,,1366
6307f3c967020d1202332b77,1Rxn4dGF4Ti9ZCVXlmG8,,,,False,,,2.3,r,,,,,,T_target,3,,,,,768,6307f3c967020d1202332b77,1 (1650).jpg,0.0-6.0-2.0-0.24,0,True,True,0,,True,True,False,True,True,False,2,2,0,8,0,,,1,,,,,,,,68177c12b166747e3416c165,images/1 (1650).jpg,B,B,,25,25,0,6814acf7a2b0960317ac048d,6307f3c967020d1202332b77,,,initial_study,24,24,0,353,461932,,7.71,107,image-keyboard-response,1,1,0,"current target, not in next trial",,,,1366
6307f3c967020d1202332b77,1V9MWBcCN2wdpox2JzPW,,,,False,,,2.3,r,,,,,,T_nontarget,3,,,,,768,6307f3c967020d1202332b77,1 (795).jpg,0.0-13.0-2.0-0.4,0,True,True,0,,True,True,False,False,False,False,9,9,0,8,0,,,1,,,,,,,,68177c12b166747e3416c165,images/1 (795).jpg,A,A,,5,5,0,6814acf7a2b0960317ac048d,6307f3c967020d1202332b77,,,initial_study,0,0,0,387,1455160,,24.26,619,image-keyboard-response,1,0,0,"studied only, not in trial",,,,1366
6307f3c967020d1202332b77,1XFbdYMhExTOIhDfOEpg,,0.7368421052631579,,True,,,2.3,r,True,True,True,,f,T_foil,3,,,,,768,6307f3c967020d1202332b77,1 (548).jpg,0.0-7.0-10.0-0.18,0,False,False,0,False,False,False,False,True,False,True,3,2,3,,0,,,2,,,,1,f,,1453,68177c12b166747e3416c165,images/1 (548).jpg,Fnn,Fnn,,0,0,0,6814acf7a2b0960317ac048d,6307f3c967020d1202332b77,,,initialTest_response,19,0,19,0,683100,,11.39,221,image-keyboard-response,0,1,1,"tested only, in next trial, from last trial",,,,1366
6307f3c967020d1202332b77,1cdzYT3Cgm0wFIulh02d,,,,False,,,2.3,r,,,,,,T_target,3,,,,,768,6307f3c967020d1202332b77,1 (745).jpg,0.0-12.0-2.0-0.13,0,False,True,0,,True,True,False,True,True,False,8,8,0,,0,,,1,,,,,,,,68177c12b166747e3416c165,images/1 (745).jpg,B,B,,14,14,0,6814acf7a2b0960317ac048d,6307f3c967020d1202332b77,,,initial_study,27,27,0,0,1324025,,22.07,552,image-keyboard-response,1,1,0,"current target, not in next trial",,,,1366
6307f3c967020d1202332b77,1hD0HHDinsOvG7zdpRdz,,0.8846153846153845,,,,,2.3,r,True,True,False,,j,T_foil,3,,,,,768,6307f3c967020d1202332b77,1 (310).jpg,0.0-23.0-1.0-0.15,0,True,,0,True,,False,False,,True,True,,1,2,8,1,,,,,,,1,j,,1247,68177c12b166747e3416c165,images/1 (310).jpg,,Fnn,,,0,0,6814acf7a2b0960317ac048d,6307f3c967020d1202332b77,,,finalTest,,9,16,364,2261578,,37.70,1129,image-keyboard-response,,,,"tested only, in next trial",,,,1366
6307f3c967020d1202332b77,1kS0vr4C0bPREVLWlFi4,,,,,,,2.3,r,,,,,,,3,,,,,768,6307f3c967020d1202332b77,,0.0-12.0-5.0-0.2,0,,,0,,,,,,,,8,,,,,,,,,3,,,,,,68177c12b166747e3416c165,5,,,5,,,,6814acf7a2b0960317ac048d,6307f3c967020d1202332b77,,57,digitPresentation,,,,,1369209,,22.83,573,html-keyboard-response,,,,,,,,1366
6307f3c967020d1202332b77,1pMKT6trnlNhaQZWdxwt,,1,,False,,,2.3,r,True,True,,,j,T_target,3,,,,,768,6307f3c967020d1202332b77,1 (1968).jpg,0.0-9.0-10.0-0.5,0,True,True,0,False,True,True,False,True,True,False,5,5,False,,0,,,1,,,,1,j,,1066,68177c12b166747e3416c165,images/1 (1968).jpg,B,B,,11,11,0,6814acf7a2b0960317ac048d,6307f3c967020d1202332b77,,,initialTest_response,6,6,0,421,951199,,15.86,360,image-keyboard-response,1,1,0,"current target, not in next trial",,,,1366
6307f3c967020d1202332b77,1qxKJ5pF55Zg18keSqoF,,0.8832116788321166,,,,,2.3,r,False,,,,f,F,3,,,,,768,6307f3c967020d1202332b77,1 (1707).jpg,0.0-24.0-1.0-0.14,0,True,,0,False,,False,False,,False,False,,0,0,9,9,,,1,,,,0,j,,1201,68177c12b166747e3416c165,images/1 (1707).jpg,,FF,,,0,0,6814acf7a2b0960317ac048d,6307f3c967020d1202332b77,,,finalTest,,0,0,411,2325783,,38.77,1176,image-keyboard-response,,,,final Foil,,,,1366
6307f3c967020d1202332b77,1uMnbc0F22Jw1Sk4oR7M,,0.8812785388127853,,,,,2.3,r,True,,,,j,T_target,3,,,,,768,6307f3c967020d1202332b77,1 (1795).jpg,0.0-24.0-1.0-0.41,0,True,,0,True,,True,False,,True,False,,10,0,9,0,,,,,,,1,j,,1637,68177c12b166747e3416c165,images/1 (1795).jpg,,B,,,28,0,6814acf7a2b0960317ac048d,6307f3c967020d1202332b77,,,finalTest,,3,0,438,2366019,,39.44,1203,image-keyboard-response,,,,"current target, not in next trial",,,,1366
6307f3c967020d1202332b77,1yGAdczCKQVXfQWMpf0L,,,,True,,,2.3,r,,,,,,T_nontarget,3,,,,,768,6307f3c967020d1202332b77,1 (1548).jpg,0.0-12.0-2.0-0.9,0,True,True,0,,True,True,False,False,False,True,8,8,9,1,0,,,1,,,,,,,,68177c12b166747e3416c165,images/1 (1548).jpg,Cn+1,Cn,,10,10,0,6814acf7a2b0960317ac048d,6307f3c967020d1202332b77,,,initial_study,0,0,13,37,1315542,,21.93,548,image-keyboard-response,1,0,1,"studied only, in next trial",,,,1366
6307f3c967020d1202332b77,1z0oANaxPdVfbuY1zQZH,,0.7727272727272727,,False,,,2.3,r,True,True,,,f,T_foil,3,,,,,768,6307f3c967020d1202332b77,1 (1684).jpg,0.0-5.0-10.0-0.21,0,True,True,0,False,False,False,False,True,True,False,1,1,False,2,0,,,1,,,,1,f,,997,68177c12b166747e3416c165,images/1 (1684).jpg,Fn+1,Fn,,0,0,0,6814acf7a2b0960317ac048d,6307f3c967020d1202332b77,,,initialTest_response,22,22,0,67,360790,,6.02,72,image-keyboard-response,0,1,0,"tested only, not in next trial",,,,1366
6307f3c967020d1202332b77,1z6NpVKceKEOLZE3eLgO,,0.9047619047619048,,True,,,2.3,r,False,False,,,j,T_target,3,,,,,768,6307f3c967020d1202332b77,1 (585).jpg,0.0-8.0-10.0-0.20,0,True,True,0,False,True,True,False,True,True,True,4,4,5,,0,,,1,,,,0,f,,1190,68177c12b166747e3416c165,images/1 (585).jpg,Dn+1,Dn,,16,16,0,6814acf7a2b0960317ac048d,6307f3c967020d1202332b77,,,initialTest_response,21,21,17,213,827620,,13.80,299,image-keyboard-response,1,1,1,"current target, in next trial",,,,1366
6307f3c967020d1202332b77,22ab4kr8ARKpcCelEwoW,,,,True,,,2.3,r,,,,,,T_target,3,,,,,768,6307f3c967020d1202332b77,1 (932).jpg,0.0-14.0-2.0-0.14,0,True,True,0,,True,True,False,True,True,False,10,10,0,6,0,,,1,,,,,,,,68177c12b166747e3416c165,images/1 (932).jpg,Dn+1,Dn,,15,15,0,6814acf7a2b0960317ac048d,6307f3c967020d1202332b77,,,initial_study,4,4,0,273,1620062,,27.01,705,image-keyboard-response,1,1,1,"current target, in next trial",,,,1366
6307f3c967020d1202332b77,258x8GyaK5ZfqAdPgT36,,,,False,,,2.3,r,,,,,,T_nontarget,3,,,,,768,6307f3c967020d1202332b77,1 (960).jpg,0.0-8.0-2.0-0.29,0,False,True,0,,True,True,False,False,False,False,4,4,0,,0,,,1,,,,,,,,68177c12b166747e3416c165,images/1 (960).jpg,A,A,,30,30,0,6814acf7a2b0960317ac048d,6307f3c967020d1202332b77,,,initial_study,0,0,0,0,764635,,12.75,264,image-keyboard-response,1,0,0,"studied only, not in trial",,,,1366
6307f3c967020d1202332b77,29Fg6tQDQWHaDrk7rcri,,0.8851540616246497,,,,,2.3,r,True,,,,f,F,3,,,,,768,6307f3c967020d1202332b77,1 (1068).jpg,0.0-23.0-1.0-0.8,0,True,,0,False,,False,False,,False,False,,0,0,8,3,,,1,,,,1,f,,1243,68177c12b166747e3416c165,images/1 (1068).jpg,,FF,,,0,0,6814acf7a2b0960317ac048d,6307f3c967020d1202332b77,,,finalTest,,0,0,357,2252343,,37.55,1122,image-keyboard-response,,,,final Foil,,,,1366
6307f3c967020d1202332b77,2ENIIvl35j5i5ll2v24n,,0.8811659192825111,,,,,2.3,r,True,,,,j,T_nontarget,3,,,,,768,6307f3c967020d1202332b77,1 (1735).jpg,0.0-25.0-1.0-0.1,0,True,,0,True,,True,False,,False,False,,10,0,10,0,,,,,,,1,j,,3642,68177c12b166747e3416c165,images/1 (1735).jpg,,A,,,17,0,6814acf7a2b0960317ac048d,6307f3c967020d1202332b77,,,finalTest,,0,0,446,2381573,,39.70,1211,image-keyboard-response,,,,"studied only, not in trial",,,,1366
6307f3c967020d1202332b77,2GjJZ15NKLeDVg0zNm11,,,,False,,,2.3,r,,,,,,T_target,3,,,,,768,6307f3c967020d1202332b77,1 (1237).jpg,0.0-10.0-2.0-0.4,0,True,True,0,,True,True,False,True,True,False,6,6,0,10,0,,,1,,,,,,,,68177c12b166747e3416c165,images/1 (1237).jpg,B,B,,5,5,0,6814acf7a2b0960317ac048d,6307f3c967020d1202332b77,,,initial_study,30,30,0,458,1000721,,16.69,391,image-keyboard-response,1,1,0,"current target, not in next trial",,,,1366
6307f3c967020d1202332b77,2Og4mP4AfAIoLaim1Z6G,,0.885608856088561,,,,,2.3,r,True,,,,f,F,3,,,,,768,6307f3c967020d1202332b77,1 (981).jpg,0.0-21.0-1.0-0.18,0,True,,0,False,,False,False,,False,False,,0,0,6,0,,,1,,,,1,f,,1428,68177c12b166747e3416c165,images/1 (981).jpg,,FF,,,0,0,6814acf7a2b0960317ac048d,6307f3c967020d1202332b77,,,finalTest,,0,0,271,2136089,,35.61,1036,image-keyboard-response,,,,final Foil,,,,1366
6307f3c967020d1202332b77,2VYlLGJoJVNqAOWbJPAL,,0.8868501529051986,,,,,2.3,r,True,,,,j,T_target,3,,,,,768,6307f3c967020d1202332b77,1 (1754).jpg,0.0-22.0-1.0-0.26,0,True,,0,True,,True,False,,True,False,,4,0,7,0,,,,,,,1,j,,1020,68177c12b166747e3416c165,images/1 (1754).jpg,,B,,,12,0,6814acf7a2b0960317ac048d,6307f3c967020d1202332b77,,,finalTest,,19,0,327,2209617,,36.83,1092,image-keyboard-response,,,,"current target, not in next trial",,,,1366
6307f3c967020d1202332b77,2Z2KC520MLhnNdAXU8bF,,0.9065420560747663,,,,,2.3,r,True,,,,f,F,3,,,,,768,6307f3c967020d1202332b77,1 (45).jpg,0.0-17.0-1.0-0.46,0,True,,0,False,,False,False,,False,False,,0,0,2,0,,,1,,,,1,f,,867,68177c12b166747e3416c165,images/1 (45).jpg,,FF,,,0,0,6814acf7a2b0960317ac048d,6307f3c967020d1202332b77,,,finalTest,,0,0,107,1936227,,32.28,872,image-keyboard-response,,,,final Foil,,,,1366
6307f3c967020d1202332b77,2dT2w4nHjOcCDLtWjHoG,,0.884476534296029,,,,,2.3,r,True,True,True,,j,T_target,3,,,,,768,6307f3c967020d1202332b77,1 (1891).jpg,0.0-21.0-1.0-0.24,0,True,,0,True,,True,False,,True,True,,6,7,6,0,,,,,,,1,j,,982,68177c12b166747e3416c165,images/1 (1891).jpg,,Dn,,,2,0,6814acf7a2b0960317ac048d,6307f3c967020d1202332b77,,,finalTest,,4,22,277,2144710,,35.75,1042,image-keyboard-response,,,,"current target, in next trial",,,,1366
6307f3c967020d1202332b77,2eXaFpEVpzVnctHHCbH2,,,,False,,,2.3,r,,,,,,T_nontarget,3,,,,,768,6307f3c967020d1202332b77,1 (1158).jpg,0.0-14.0-2.0-0.10,0,False,True,0,,True,True,False,False,False,False,10,10,0,,0,,,1,,,,,,,,68177c12b166747e3416c165,images/1 (1158).jpg,A,A,,11,11,0,6814acf7a2b0960317ac048d,6307f3c967020d1202332b77,,,initial_study,0,0,0,0,1611595,,26.87,701,image-keyboard-response,1,0,0,"studied only, not in trial",,,,1366
6307f3c967020d1202332b77,2eyZl7T92G61rSn1pSIa,,,,True,,,2.3,r,,,,,,T_nontarget,3,,,,,768,6307f3c967020d1202332b77,1 (828).jpg,0.0-11.0-2.0-0.21,0,True,True,0,,True,True,False,False,False,True,7,7,8,9,0,,,1,,,,,,,,68177c12b166747e3416c165,images/1 (828).jpg,Cn+1,Cn,,22,22,0,6814acf7a2b0960317ac048d,6307f3c967020d1202332b77,,,initial_study,0,0,7,434,1185391,,19.76,484,image-keyboard-response,1,0,1,"studied only, in next trial",,,,1366
6307f3c967020d1202332b77,2fYanM0hms2EbjBwC6CG,,,,,,,2.3,r,,,,,,,3,,,,,768,6307f3c967020d1202332b77,,0.0-13.0-5.0-0.1,0,,,0,,,,,,,,9,,,,,,,,,2,,,,,,68177c12b166747e3416c165,8,,,8,,,,6814acf7a2b0960317ac048d,6307f3c967020d1202332b77,,60,digitPresentation,,,,,1516443,,25.28,648,html-keyboard-response,,,,,,,,1366
6307f3c967020d1202332b77,2iKgJiovsXGd29piIye5,,0.877995642701525,,,,,2.3,r,True,,,,f,F,3,,,,,768,6307f3c967020d1202332b77,1 (614).jpg,0.0-25.0-1.0-0.14,0,True,,0,False,,False,False,,False,False,,0,0,10,8,,,1,,,,1,f,,1387,68177c12b166747e3416c165,images/1 (614).jpg,,FF,,,0,0,6814acf7a2b0960317ac048d,6307f3c967020d1202332b77,,,finalTest,,0,0,459,2401771,,40.04,1224,image-keyboard-response,,,,final Foil,,,,1366
6307f3c967020d1202332b77,2o3PNxqTHZQuBBjRusOX,,0.872340425531915,,,,,2.3,r,True,,,,j,T_target,3,,,,,768,6307f3c967020d1202332b77,1 (2323).jpg,0.0-16.0-1.0-0.46,0,True,,0,True,,True,False,,True,False,,4,0,1,0,,,,,,,1,j,,964,68177c12b166747e3416c165,images/1 (2323).jpg,,B,,,5,0,6814acf7a2b0960317ac048d,6307f3c967020d1202332b77,,,finalTest,,17,0,47,1873589,,31.23,812,image-keyboard-response,,,,"current target, not in next trial",,,,1366
6307f3c967020d1202332b77,2pBtLIiLCTHPovWdnjwU,,,,False,,,2.3,r,,,,,,T_nontarget,3,,,,,768,6307f3c967020d1202332b77,1 (345).jpg,0.0-6.0-2.0-0.11,0,True,True,0,,True,True,False,False,False,False,2,2,0,4,0,,,1,,,,,,,,68177c12b166747e3416c165,images/1 (345).jpg,A,A,,12,12,0,6814acf7a2b0960317ac048d,6307f3c967020d1202332b77,,,initial_study,0,0,0,180,434366,,7.25,94,image-keyboard-response,1,0,0,"studied only, not in trial",,,,1366
6307f3c967020d1202332b77,2xCOmX1a7hbZTjWn2ZoM,,0.8828571428571427,,,,,2.3,r,True,,,,f,F,3,,,,,768,6307f3c967020d1202332b77,1 (1282).jpg,0.0-23.0-1.0-0.1,0,True,,0,False,,False,False,,False,False,,0,0,8,0,,,1,,,,1,f,,1030,68177c12b166747e3416c165,images/1 (1282).jpg,,FF,,,0,0,6814acf7a2b0960317ac048d,6307f3c967020d1202332b77,,,finalTest,,0,0,350,2242177,,37.38,1115,image-keyboard-response,,,,final Foil,,,,1366
6307f3c967020d1202332b77,2y1Wfnww3qpKc8GMjmRx,,,,False,,,2.3,r,,,,,,T_target,3,,,,,768,6307f3c967020d1202332b77,1 (1968).jpg,0.0-9.0-2.0-0.10,0,True,True,0,,True,True,False,True,True,False,5,5,0,9,0,,,1,,,,,,,,68177c12b166747e3416c165,images/1 (1968).jpg,B,B,,11,11,0,6814acf7a2b0960317ac048d,6307f3c967020d1202332b77,,,initial_study,6,6,0,421,865486,,14.43,321,image-keyboard-response,1,1,0,"current target, not in next trial",,,,1366
6307f3c967020d1202332b77,2zUZP775abJYr7pGZIIo,,,,False,,,2.3,r,,,,,,T_target,3,,,,,768,6307f3c967020d1202332b77,1 (468).jpg,0.0-13.0-2.0-0.8,0,True,True,0,,True,True,False,True,True,False,9,9,0,7,0,,,1,,,,,,,,68177c12b166747e3416c165,images/1 (468).jpg,B,B,,9,9,0,6814acf7a2b0960317ac048d,6307f3c967020d1202332b77,,,initial_study,7,7,0,305,1463643,,24.40,623,image-keyboard-response,1,1,0,"current target, not in next trial",,,,1366
6307f3c967020d1202332b77,33vW5QFTj3UZmmj8J88D,,0.8813559322033898,,,,,2.3,r,True,,,,f,F,3,,,,,768,6307f3c967020d1202332b77,1 (1567).jpg,0.0-20.0-1.0-0.31,0,True,,0,False,,False,False,,False,False,,0,0,5,3,,,1,,,,1,f,,1146,68177c12b166747e3416c165,images/1 (1567).jpg,,FF,,,0,0,6814acf7a2b0960317ac048d,6307f3c967020d1202332b77,,,finalTest,,0,0,236,2090758,,34.85,1001,image-keyboard-response,,,,final Foil,,,,1366
6307f3c967020d1202332b77,35xqBrca7e2Me1CZaXmM,,,,False,,,2.3,r,,,,,,T_nontarget,3,,,,,768,6307f3c967020d1202332b77,1 (1926).jpg,0.0-8.0-2.0-0.22,0,True,True,0,,True,True,False,False,False,False,4,4,0,10,0,,,1,,,,,,,,68177c12b166747e3416c165,images/1 (1926).jpg,A,A,,23,23,0,6814acf7a2b0960317ac048d,6307f3c967020d1202332b77,,,initial_study,0,0,0,456,749802,,12.50,257,image-keyboard-response,1,0,0,"studied only, not in trial",,,,1366
6307f3c967020d1202332b77,3BknXUC4F4omTtMIXWWW,,,,True,,,2.3,r,,,,,,T_nontarget,3,,,,,768,6307f3c967020d1202332b77,1 (2254).jpg,0.0-9.0-2.0-0.25,0,False,True,0,,True,True,False,False,False,True,5,5,6,,0,,,1,,,,,,,,68177c12b166747e3416c165,images/1 (2254).jpg,Cn+1,Cn,,26,26,0,6814acf7a2b0960317ac048d,6307f3c967020d1202332b77,,,initial_study,0,0,25,0,897320,,14.96,336,image-keyboard-response,1,0,1,"studied only, in next trial",,,,1366
6307f3c967020d1202332b77,3JgAA1t3KFgmd0avHfWv,,,,False,,,2.3,r,,,,,,T_target,3,,,,,768,6307f3c967020d1202332b77,1 (814).jpg,0.0-5.0-2.0-0.4,0,False,True,0,,True,True,False,True,True,False,1,1,0,,0,,,1,,,,,,,,68177c12b166747e3416c165,images/1 (814).jpg,B,B,,5,5,0,6814acf7a2b0960317ac048d,6307f3c967020d1202332b77,,,initial_study,25,25,0,0,232779,,3.89,11,image-keyboard-response,1,1,0,"current target, not in next trial",,,,1366
6307f3c967020d1202332b77,3MW7Y3jfMaheekufcZxv,,,,,,,2.3,r,,,,,,,3,,,,,768,6307f3c967020d1202332b77,,0.0-11.0-5.0-0.0,0,,,0,,,,,,,,7,,,,,,,,,1,,,,,,68177c12b166747e3416c165,7,,,7,,,,6814acf7a2b0960317ac048d,6307f3c967020d1202332b77,,51,digitPresentation,,,,,1207606,,20.13,495,html-keyboard-response,,,,,,,,1366
6307f3c967020d1202332b77,3Nixp5W3E4ds3tnJ9ufc,,0.9029850746268657,,,,,2.3,r,True,,,,j,T_nontarget,3,,,,,768,6307f3c967020d1202332b77,1 (202).jpg,0.0-18.0-1.0-0.25,0,True,,0,True,,True,False,,False,False,,8,0,3,0,,,,,,,1,j,,943,68177c12b166747e3416c165,images/1 (202).jpg,,A,,,8,0,6814acf7a2b0960317ac048d,6307f3c967020d1202332b77,,,finalTest,,0,0,134,1963822,,32.74,899,image-keyboard-response,,,,"studied only, not in trial",,,,1366
6307f3c967020d1202332b77,3WBxPrRXHUNkZE8t9p8e,,0.8461538461538464,,,,,2.3,r,True,,,,j,T_nontarget,3,,,,,768,6307f3c967020d1202332b77,1 (1645).jpg,0.0-16.0-1.0-0.38,0,True,,0,True,,True,False,,False,False,,1,0,1,0,,,,,,,1,j,,1012,68177c12b166747e3416c165,images/1 (1645).jpg,,A,,,20,0,6814acf7a2b0960317ac048d,6307f3c967020d1202332b77,,,finalTest,,0,0,39,1864489,,31.08,804,image-keyboard-response,,,,"studied only, not in trial",,,,1366
6307f3c967020d1202332b77,3bOPcWboeYtLz9KTlWO8,,0.8917525773195877,,,,,2.3,r,True,,,,j,T_nontarget,3,,,,,768,6307f3c967020d1202332b77,1 (1725).jpg,0.0-19.0-1.0-0.37,0,True,,0,True,,True,False,,False,False,,9,0,4,0,,,,,,,1,j,,879,68177c12b166747e3416c165,images/1 (1725).jpg,,A,,,25,0,6814acf7a2b0960317ac048d,6307f3c967020d1202332b77,,,finalTest,,0,0,194,2036342,,33.95,959,image-keyboard-response,,,,"studied only, not in trial",,,,1366
6307f3c967020d1202332b77,3f1oF0WbEdkr6EnXUkwf,,,,,,,2.3,r,,,,,,,3,,,,,768,6307f3c967020d1202332b77,,0.0-10.0-4.0-0.0,0,,,0,,,,,,,,,,,,,,,,,,,,,,,68177c12b166747e3416c165,"<div style=""font-size:60px;"">+</div>",,,,,,,6814acf7a2b0960317ac048d,6307f3c967020d1202332b77,,,fixation,,,,,1056953,,17.62,418,html-keyboard-response,,,,,,,,1366
6307f3c967020d1202332b77,3mzFeRrdYHyY1W50qWim,,,,False,,,2.3,r,,,,,,T_target,3,,,,,768,6307f3c967020d1202332b77,1 (1754).jpg,0.0-8.0-2.0-0.11,0,True,True,0,,True,True,False,True,True,False,4,4,0,7,0,,,1,,,,,,,,68177c12b166747e3416c165,images/1 (1754).jpg,B,B,,12,12,0,6814acf7a2b0960317ac048d,6307f3c967020d1202332b77,,,initial_study,19,19,0,327,726519,,12.12,246,image-keyboard-response,1,1,0,"current target, not in next trial",,,,1366
6307f3c967020d1202332b77,3rr0Y9hJMriaZP1iiang,,,,False,,,2.3,r,,,,,,T_target,3,,,,,768,6307f3c967020d1202332b77,1 (1686).jpg,0.0-13.0-2.0-0.20,0,True,True,0,,True,True,False,True,True,False,9,9,0,9,0,,,1,,,,,,,,68177c12b166747e3416c165,images/1 (1686).jpg,B,B,,21,21,0,6814acf7a2b0960317ac048d,6307f3c967020d1202332b77,,,initial_study,30,30,0,413,1489060,,24.82,635,image-keyboard-response,1,1,0,"current target, not in next trial",,,,1366
6307f3c967020d1202332b77,3s2gJyTPIOKsfqSQzWaP,,0.75,,False,,,2.3,r,True,True,,,j,T_target,3,,,,,768,6307f3c967020d1202332b77,1 (486).jpg,0.0-5.0-10.0-0.15,0,True,True,0,False,True,True,False,True,True,False,1,1,False,,0,,,1,,,,1,j,,927,68177c12b166747e3416c165,images/1 (486).jpg,B,B,,16,16,0,6814acf7a2b0960317ac048d,6307f3c967020d1202332b77,,,initialTest_response,16,16,0,68,354637,,5.92,66,image-keyboard-response,1,1,0,"current target, not in next trial",,,,1366
6307f3c967020d1202332b77,3sRAdPZnuXJtUn5LvKaQ,,1,,False,,,2.3,r,True,True,,,j,T_target,3,,,,,768,6307f3c967020d1202332b77,1 (2082).jpg,0.0-12.0-10.0-0.0,0,True,True,0,False,True,True,False,True,True,False,8,8,False,,0,,,1,,,,1,j,,1106,68177c12b166747e3416c165,images/1 (2082).jpg,B,B,,15,15,0,6814acf7a2b0960317ac048d,6307f3c967020d1202332b77,,,initialTest_response,1,1,0,251,1396362,,23.28,583,image-keyboard-response,1,1,0,"current target, not in next trial",,,,1366
6307f3c967020d1202332b77,3tQKwgs5N6GZyX5b6SBu,,0.8571428571428571,,False,,,2.3,r,True,True,,,f,T_foil,3,,,,,768,6307f3c967020d1202332b77,1 (2006).jpg,0.0-11.0-10.0-0.6,0,False,True,0,False,False,False,False,True,True,False,7,7,False,,0,,,1,,,,1,f,,1145,68177c12b166747e3416c165,images/1 (2006).jpg,Fn+1,Fn,,0,0,0,6814acf7a2b0960317ac048d,6307f3c967020d1202332b77,,,initialTest_response,7,7,0,0,1251130,,20.86,513,image-keyboard-response,0,1,0,"tested only, not in next trial",,,,1366
6307f3c967020d1202332b77,3whngdCBb9jR5r6prUqd,,0.75,,False,,,2.3,r,True,True,,,f,T_foil,3,,,,,768,6307f3c967020d1202332b77,1 (163).jpg,0.0-13.0-10.0-0.27,0,False,True,0,False,False,False,False,True,True,False,9,9,False,,0,,,1,,,,1,f,,1026,68177c12b166747e3416c165,images/1 (163).jpg,Fn+1,Fn,,0,0,0,6814acf7a2b0960317ac048d,6307f3c967020d1202332b77,,,initialTest_response,28,28,0,0,1582566,,26.38,686,image-keyboard-response,0,1,0,"tested only, not in next trial",,,,1366
6307f3c967020d1202332b77,42me4AdzYwNmcpVjOnLb,,,,True,,,2.3,r,,,,,,T_nontarget,3,,,,,768,6307f3c967020d1202332b77,1 (489).jpg,0.0-8.0-2.0-0.5,0,True,True,0,,True,True,False,False,False,True,4,4,5,1,0,,,1,,,,,,,,68177c12b166747e3416c165,images/1 (489).jpg,Cn+1,Cn,,6,6,0,6814acf7a2b0960317ac048d,6307f3c967020d1202332b77,,,initial_study,0,0,11,41,713819,,11.90,240,image-keyboard-response,1,0,1,"studied only, in next trial",,,,1366
6307f3c967020d1202332b77,43k7g0h5KnZ4uG1bOxhJ,,0.9444444444444444,,False,,,2.3,r,True,True,,,f,T_foil,3,,,,,768,6307f3c967020d1202332b77,1 (636).jpg,0.0-8.0-10.0-0.17,0,True,True,0,False,False,False,False,True,True,False,4,4,False,6,0,,,1,,,,1,f,,1095,68177c12b166747e3416c165,images/1 (636).jpg,Fn+1,Fn,,0,0,0,6814acf7a2b0960317ac048d,6307f3c967020d1202332b77,,,initialTest_response,18,18,0,293,823893,,13.74,296,image-keyboard-response,0,1,0,"tested only, not in next trial",,,,1366
6307f3c967020d1202332b77,47mugk6vpMKDMqVie2L5,,0.75,,True,,,2.3,r,True,True,,,j,T_target,3,,,,,768,6307f3c967020d1202332b77,1 (97).jpg,0.0-7.0-10.0-0.3,0,False,True,0,False,True,True,False,True,True,True,3,3,4,,0,,,1,,,,1,j,,896,68177c12b166747e3416c165,images/1 (97).jpg,Dn+1,Dn,,5,5,0,6814acf7a2b0960317ac048d,6307f3c967020d1202332b77,,,initialTest_response,4,4,2,0,662575,,11.05,206,image-keyboard-response,1,1,1,"current target, in next trial",,,,1366
6307f3c967020d1202332b77,49431zNy1iWChiyEBfUP,,0.8839907192575405,,,,,2.3,r,True,,,,f,F,3,,,,,768,6307f3c967020d1202332b77,1 (1260).jpg,0.0-24.0-1.0-0.34,0,True,,0,False,,False,False,,False,False,,0,0,9,5,,,1,,,,1,f,,2085,68177c12b166747e3416c165,images/1 (1260).jpg,,FF,,,0,0,6814acf7a2b0960317ac048d,6307f3c967020d1202332b77,,,finalTest,,0,0,431,2356568,,39.28,1196,image-keyboard-response,,,,final Foil,,,,1366
6307f3c967020d1202332b77,4B6smOVcMjuBRHfr0JMF,,0.8938547486033519,,,,,2.3,r,True,,,,j,T_nontarget,3,,,,,768,6307f3c967020d1202332b77,1 (1724).jpg,0.0-19.0-1.0-0.22,0,True,,0,True,,True,False,,False,False,,6,0,4,0,,,,,,,1,j,,847,68177c12b166747e3416c165,images/1 (1724).jpg,,A,,,16,0,6814acf7a2b0960317ac048d,6307f3c967020d1202332b77,,,finalTest,,0,0,179,2017310,,33.63,944,image-keyboard-response,,,,"studied only, not in trial",,,,1366
6307f3c967020d1202332b77,4EM2kXS2BWIf1ME9bFGw,,0.8808988764044943,,,,,2.3,r,False,,,,f,F,3,,,,,768,6307f3c967020d1202332b77,1 (1286).jpg,0.0-25.0-1.0-0.0,0,True,,0,False,,False,False,,False,False,,0,0,10,5,,,1,,,,0,j,,2085,68177c12b166747e3416c165,images/1 (1286).jpg,,FF,,,0,0,6814acf7a2b0960317ac048d,6307f3c967020d1202332b77,,,finalTest,,0,0,445,2377813,,39.64,1210,image-keyboard-response,,,,final Foil,,,,1366
6307f3c967020d1202332b77,4Howr9c99gji50e95dKn,,,,False,,,2.3,r,,,,,,T_nontarget,3,,,,,768,6307f3c967020d1202332b77,1 (263).jpg,0.0-9.0-2.0-0.23,0,True,True,0,,True,True,False,False,False,False,5,5,0,6,0,,,1,,,,,,,,68177c12b166747e3416c165,images/1 (263).jpg,A,A,,24,24,0,6814acf7a2b0960317ac048d,6307f3c967020d1202332b77,,,initial_study,0,0,0,257,893070,,14.89,334,image-keyboard-response,1,0,0,"studied only, not in trial",,,,1366
6307f3c967020d1202332b77,4LSFjA92zbBJXmQRgXbC,,,,,,,2.3,r,,,,,,,3,,,,,768,6307f3c967020d1202332b77,,0.0-13.0-8.0-0.0,0,,,0,,,,,,,,,,,,,,,,,,,,,,,68177c12b166747e3416c165,Now judge if you have seen this pictures from the list you JUST studied before the digits,,,,,,,6814acf7a2b0960317ac048d,6307f3c967020d1202332b77,,,prompt,,,,,1544494,,25.75,657,html-keyboard-response,,,,,,,,1366
6307f3c967020d1202332b77,4PdSgDU8uvqgWYbi1DcT,,0.8214285714285714,,,,,2.3,r,True,,,,j,T_nontarget,3,,,,,768,6307f3c967020d1202332b77,1 (2202).jpg,0.0-16.0-1.0-0.27,0,True,,0,True,,True,False,,False,False,,7,0,1,0,,,,,,,1,j,,1161,68177c12b166747e3416c165,images/1 (2202).jpg,,A,,,13,0,6814acf7a2b0960317ac048d,6307f3c967020d1202332b77,,,finalTest,,0,0,28,1850421,,30.85,793,image-keyboard-response,,,,"studied only, not in trial",,,,1366
6307f3c967020d1202332b77,4RKnrurx3ySSOmhciqcX,,0.9097222222222222,,,,,2.3,r,True,,,,f,F,3,,,,,768,6307f3c967020d1202332b77,1 (440).jpg,0.0-18.0-1.0-0.35,0,True,,0,False,,False,False,,False,False,,0,0,3,8,,,1,,,,1,f,,2177,68177c12b166747e3416c165,images/1 (440).jpg,,FF,,,0,0,6814acf7a2b0960317ac048d,6307f3c967020d1202332b77,,,finalTest,,0,0,144,1975224,,32.93,909,image-keyboard-response,,,,final Foil,,,,1366
6307f3c967020d1202332b77,4TSwsjOhcL8AKp8wDVd0,,,,False,,,2.3,r,,,,,,T_nontarget,3,,,,,768,6307f3c967020d1202332b77,1 (2202).jpg,0.0-11.0-2.0-0.12,0,True,True,0,,True,True,False,False,False,False,7,7,0,1,0,,,1,,,,,,,,68177c12b166747e3416c165,images/1 (2202).jpg,A,A,,13,13,0,6814acf7a2b0960317ac048d,6307f3c967020d1202332b77,,,initial_study,0,0,0,28,1166340,,19.45,475,image-keyboard-response,1,0,0,"studied only, not in trial",,,,1366
6307f3c967020d1202332b77,4UwpOgCIvUBlIwxOD2Hb,,,,,,,2.3,r,,,,,,,3,,,,,768,6307f3c967020d1202332b77,,0.0-8.0-5.0-0.0,0,,,0,,,,,,,,4,,,,,,,,,1,,,,,,68177c12b166747e3416c165,6,,,6,,,,6814acf7a2b0960317ac048d,6307f3c967020d1202332b77,,50,digitPresentation,,,,,769885,,12.84,267,html-keyboard-response,,,,,,,,1366
6307f3c967020d1202332b77,4Ux0uaRT5bBMvfJqi9FV,,0.9166666666666666,,,,,2.3,r,True,,,,j,T_nontarget,3,,,,,768,6307f3c967020d1202332b77,1 (1229).jpg,0.0-16.0-1.0-0.11,0,True,,0,True,,True,False,,False,False,,8,0,1,0,,,,,,,1,j,,1135,68177c12b166747e3416c165,images/1 (1229).jpg,,A,,,17,0,6814acf7a2b0960317ac048d,6307f3c967020d1202332b77,,,finalTest,,0,0,12,1830045,,30.51,777,image-keyboard-response,,,,"studied only, not in trial",,,,1366
6307f3c967020d1202332b77,4q4xJycTOYl0tnx4Tq2c,,0.8839506172839505,,,,,2.3,r,True,,,,f,F,3,,,,,768,6307f3c967020d1202332b77,1 (2247).jpg,0.0-24.0-1.0-0.8,0,True,,0,False,,False,False,,False,False,,0,0,9,2,,,1,,,,1,f,,1125,68177c12b166747e3416c165,images/1 (2247).jpg,,FF,,,0,0,6814acf7a2b0960317ac048d,6307f3c967020d1202332b77,,,finalTest,,0,0,405,2317658,,38.63,1170,image-keyboard-response,,,,final Foil,,,,1366
6307f3c967020d1202332b77,4qDxhpY2FwzoOKrdRwl9,,,,False,,,2.3,r,,,,,,T_nontarget,3,,,,,768,6307f3c967020d1202332b77,1 (497).jpg,0.0-10.0-2.0-0.22,0,True,True,0,,True,True,False,False,False,False,6,6,0,7,0,,,1,,,,,,,,68177c12b166747e3416c165,images/1 (497).jpg,A,A,,23,23,0,6814acf7a2b0960317ac048d,6307f3c967020d1202332b77,,,initial_study,0,0,0,301,1038872,,17.32,409,image-keyboard-response,1,0,0,"studied only, not in trial",,,,1366
6307f3c967020d1202332b77,4rU7IJbwdvNkl1elAJLr,,,,,,,2.3,r,,,,,,,3,,,,,768,6307f3c967020d1202332b77,,0.0-5.0-7.0-0.0,0,,,0,,,,,,,,,,,,,,,,,,,,,,,68177c12b166747e3416c165,<p background:white>CORRECT!</p>,,,,,,,6814acf7a2b0960317ac048d,6307f3c967020d1202332b77,,,promptfeedback,,,,,320497,,5.35,48,html-keyboard-response,,,,,,,,1366
6307f3c967020d1202332b77,4xv6gSvcrPjCEHnlCmf8,,0.8835341365461847,,,,,2.3,r,True,,False,,j,T_nontarget,3,,,,,768,6307f3c967020d1202332b77,1 (2352).jpg,0.0-20.0-1.0-0.44,0,True,,0,True,,True,False,,False,True,,2,3,5,0,,,,,,,1,j,,1020,68177c12b166747e3416c165,images/1 (2352).jpg,,Cn,,,27,0,6814acf7a2b0960317ac048d,6307f3c967020d1202332b77,,,finalTest,,0,25,249,2108366,,35.15,1014,image-keyboard-response,,,,"studied only, in next trial",,,,1366
6307f3c967020d1202332b77,59Mb8VMyuTN2JmSowUxn,,0.7058823529411765,,False,,,2.3,r,True,True,,,j,T_target,3,,,,,768,6307f3c967020d1202332b77,1 (949).jpg,0.0-7.0-10.0-0.16,0,True,True,0,False,True,True,False,True,True,False,3,3,False,,0,,,1,,,,1,j,,1020,68177c12b166747e3416c165,images/1 (949).jpg,B,B,,11,11,0,6814acf7a2b0960317ac048d,6307f3c967020d1202332b77,,,initialTest_response,17,17,0,143,680317,,11.35,219,image-keyboard-response,1,1,0,"current target, not in next trial",,,,1366
6307f3c967020d1202332b77,5IZtr3L014qzYoBFRBVt,,0.8821428571428571,,,,,2.3,r,True,,,,f,F,3,,,,,768,6307f3c967020d1202332b77,1 (1097).jpg,0.0-21.0-1.0-0.27,0,True,,0,False,,False,False,,False,False,,0,0,6,6,,,1,,,,1,f,,1071,68177c12b166747e3416c165,images/1 (1097).jpg,,FF,,,0,0,6814acf7a2b0960317ac048d,6307f3c967020d1202332b77,,,finalTest,,0,0,280,2149251,,35.83,1045,image-keyboard-response,,,,final Foil,,,,1366
6307f3c967020d1202332b77,5NDiFEpdQxCmQp9vNztY,,0.903225806451613,,,,,2.3,r,True,,,,j,T_foil,3,,,,,768,6307f3c967020d1202332b77,1 (956).jpg,0.0-17.0-1.0-0.1,0,True,,0,True,,False,False,,True,False,,5,False,2,5,,,,,,,1,j,,924,68177c12b166747e3416c165,images/1 (956).jpg,,Fn,,,0,0,6814acf7a2b0960317ac048d,6307f3c967020d1202332b77,,,finalTest,,10,0,62,1890167,,31.51,827,image-keyboard-response,,,,"tested only, not in next trial",,,,1366
6307f3c967020d1202332b77,5Pc8Wd47Ye9eraUzIfNU,,0.9473684210526315,,True,,,2.3,r,True,True,True,,f,T_foil,3,,,,,768,6307f3c967020d1202332b77,1 (53).jpg,0.0-12.0-10.0-0.18,0,True,False,0,False,False,True,False,True,True,True,8,7,8,,0,,,2,,,,1,f,,1567,68177c12b166747e3416c165,images/1 (53).jpg,Dn,Dn,,0,3,0,6814acf7a2b0960317ac048d,6307f3c967020d1202332b77,,,initialTest_response,19,3,19,148,1423571,,23.73,601,image-keyboard-response,1,1,1,"current target, in next trial, from last trial",,,,1366
6307f3c967020d1202332b77,5RQt5IwKXHFbj2wlrWtC,,0.837837837837838,,,,,2.3,r,True,,True,,j,T_nontarget,3,,,,,768,6307f3c967020d1202332b77,1 (1548).jpg,0.0-16.0-1.0-0.36,0,True,,0,True,,True,False,,False,True,,8,9,1,0,,,,,,,1,j,,1057,68177c12b166747e3416c165,images/1 (1548).jpg,,Cn,,,10,0,6814acf7a2b0960317ac048d,6307f3c967020d1202332b77,,,finalTest,,0,13,37,1862218,,31.04,802,image-keyboard-response,,,,"studied only, in next trial",,,,1366
6307f3c967020d1202332b77,5Yr2fDUPd6AmIJvDKCxA,,1,,True,,,2.3,r,True,True,,,j,T_target,3,,,,,768,6307f3c967020d1202332b77,1 (127).jpg,0.0-9.0-10.0-0.1,0,True,True,0,False,True,True,False,True,True,True,5,5,6,,0,,,1,,,,1,j,,1149,68177c12b166747e3416c165,images/1 (127).jpg,Dn+1,Dn,,23,23,0,6814acf7a2b0960317ac048d,6307f3c967020d1202332b77,,,initialTest_response,2,2,27,240,945682,,15.77,356,image-keyboard-response,1,1,1,"current target, in next trial",,,,1366
6307f3c967020d1202332b77,5bZ3SebnXXKqYERQp5nV,,,,False,,,2.3,r,,,,,,T_target,3,,,,,768,6307f3c967020d1202332b77,1 (1475).jpg,0.0-6.0-2.0-0.2,0,True,True,0,,True,True,False,True,True,False,2,2,0,9,0,,,1,,,,,,,,68177c12b166747e3416c165,images/1 (1475).jpg,B,B,,3,3,0,6814acf7a2b0960317ac048d,6307f3c967020d1202332b77,,,initial_study,30,30,0,439,415314,,6.93,85,image-keyboard-response,1,1,0,"current target, not in next trial",,,,1366
6307f3c967020d1202332b77,5g39o3PS2gYrl9dzBWiE,,0.8125,,False,,,2.3,r,True,True,,,j,T_target,3,,,,,768,6307f3c967020d1202332b77,1 (1269).jpg,0.0-10.0-10.0-0.15,0,False,True,0,False,True,True,False,True,True,False,6,6,False,,0,,,1,,,,1,j,,1051,68177c12b166747e3416c165,images/1 (1269).jpg,B,B,,19,19,0,6814acf7a2b0960317ac048d,6307f3c967020d1202332b77,,,initialTest_response,16,16,0,0,1112919,,18.56,446,image-keyboard-response,1,1,0,"current target, not in next trial",,,,1366
6307f3c967020d1202332b77,5guYVppS9IaZYqoF9BJM,,1,,,,,2.3,r,True,,,,j,T_target,3,,,,,768,6307f3c967020d1202332b77,1 (2161).jpg,0.0-16.0-1.0-0.5,0,True,,0,True,,True,False,,True,False,,4,0,1,0,,,,,,,1,j,,1056,68177c12b166747e3416c165,images/1 (2161).jpg,,B,,,28,0,6814acf7a2b0960317ac048d,6307f3c967020d1202332b77,,,finalTest,,5,0,6,1821982,,30.37,771,image-keyboard-response,,,,"current target, not in next trial",,,,1366
6307f3c967020d1202332b77,5iE2BivhjNF65gq1YxSx,,0.7619047619047619,,False,,,2.3,r,True,True,,,j,T_target,3,,,,,768,6307f3c967020d1202332b77,1 (564).jpg,0.0-7.0-10.0-0.20,0,True,True,0,False,True,True,False,True,True,False,3,3,False,,0,,,1,,,,1,j,,908,68177c12b166747e3416c165,images/1 (564).jpg,B,B,,10,10,0,6814acf7a2b0960317ac048d,6307f3c967020d1202332b77,,,initialTest_response,21,21,0,348,685171,,11.43,223,image-keyboard-response,1,1,0,"current target, not in next trial",,,,1366
6307f3c967020d1202332b77,5nk8ednev6Ik9M7jI7QO,,,,False,,,2.3,r,,,,,,T_target,3,,,,,768,6307f3c967020d1202332b77,1 (615).jpg,0.0-14.0-2.0-0.2,0,False,True,0,,True,True,False,True,True,False,10,10,0,,0,,,1,,,,,,,,68177c12b166747e3416c165,images/1 (615).jpg,B,B,,3,3,0,6814acf7a2b0960317ac048d,6307f3c967020d1202332b77,,,initial_study,9,9,0,0,1594627,,26.58,693,image-keyboard-response,1,1,0,"current target, not in next trial",,,,1366
6307f3c967020d1202332b77,5qkfQENmVRlLuCXI2yye,,0.8837209302325582,,,,,2.3,r,True,,,,j,T_target,3,,,,,768,6307f3c967020d1202332b77,1 (557).jpg,0.0-21.0-1.0-0.5,0,True,,0,True,,True,False,,True,False,,9,0,6,0,,,,,,,1,j,,1180,68177c12b166747e3416c165,images/1 (557).jpg,,B,,,27,0,6814acf7a2b0960317ac048d,6307f3c967020d1202332b77,,,finalTest,,9,0,258,2119576,,35.33,1023,image-keyboard-response,,,,"current target, not in next trial",,,,1366
6307f3c967020d1202332b77,60DsPenKXnMMiwiODsXb,,0.8903654485049832,,,,,2.3,r,True,,,,j,T_nontarget,3,,,,,768,6307f3c967020d1202332b77,1 (497).jpg,0.0-22.0-1.0-0.0,0,True,,0,True,,True,False,,False,False,,6,0,7,0,,,,,,,1,j,,1657,68177c12b166747e3416c165,images/1 (497).jpg,,A,,,23,0,6814acf7a2b0960317ac048d,6307f3c967020d1202332b77,,,finalTest,,0,0,301,2176320,,36.28,1066,image-keyboard-response,,,,"studied only, not in trial",,,,1366
6307f3c967020d1202332b77,62g6Fw91mqO5VXkOnqI2,,0.896551724137931,,False,,,2.3,r,True,True,,,j,T_target,3,,,,,768,6307f3c967020d1202332b77,1 (1142).jpg,0.0-11.0-10.0-0.28,0,False,True,0,False,True,True,False,True,True,False,7,7,False,,0,,,1,,,,1,j,,1430,68177c12b166747e3416c165,images/1 (1142).jpg,B,B,,20,20,0,6814acf7a2b0960317ac048d,6307f3c967020d1202332b77,,,initialTest_response,29,29,0,0,1288249,,21.48,535,image-keyboard-response,1,1,0,"current target, not in next trial",,,,1366
6307f3c967020d1202332b77,63ADitKWvFZQTyRhiSWf,,,,True,,,2.3,r,,,,,,T_nontarget,3,,,,,768,6307f3c967020d1202332b77,1 (351).jpg,0.0-9.0-2.0-0.28,0,True,True,0,,True,True,False,False,False,True,5,5,6,2,0,,,1,,,,,,,,68177c12b166747e3416c165,images/1 (351).jpg,Cn+1,Cn,,29,29,0,6814acf7a2b0960317ac048d,6307f3c967020d1202332b77,,,initial_study,0,0,5,98,903670,,15.07,339,image-keyboard-response,1,0,1,"studied only, in next trial",,,,1366
6307f3c967020d1202332b77,678xb45VCwYDKC6ySZps,,,,,,,2.3,r,,,,,,,3,,,,,768,6307f3c967020d1202332b77,,0.0-5.0-0.0-0.0-0.0,0,,,0,,,,,,,,,,,,,,,,,,,,enter,,87524,68177c12b166747e3416c165,"

    <p style='text-align: justify;color: black;background: white;font: caption-;'>1. A list of 30 pictures will appear on the screen one at a time. Study the pictures as they appear.</p>
    <p style='text-align: justify;color: black;background: white;font: caption-;'>2. After a brief blank period, you will see a series of numbers. Add these numbers as they appear. When prompted with ""TYPE THE SUM,"" use the number keys to enter your answer.</p>
     
    <p style='text-align: justify; color: black; background: white; font: caption-;'> 
    3. Next, you will see a series of test pictures from the list you just studied. For each picture, press the <strong>""J""</strong> key if you recognize it as one you have seen in the current list. Press the <strong>""F""</strong> key if you don’t recognize it as one from the current list. <br>   
      <strong>Accumulated accuracy will be displayed throughout the experiment. Please pay attention and try to get an averaged performance higher than 60% (chance level is 50%).</strong></p><br>
    <p style='text-align: justify; color: black; background: white; font: caption-;'>
    You will begin with a practice list, followed by nine formal test lists. <strong>For each test, respond based only on the list you JUST studied. If a picture appeared in a previous list but not the current one, press the <strong>""F""</strong> key.</strong>
    </p>

<p style='text-align: justify;color: black;background: white;font: caption-;'>Do not worry if you are unsure about some test pictures. This is normal, but please make your best guess.</p>
    <p style='text-align: justify;color: black;background: white;font: caption-;'>Press the ""Enter"" key to start the practice list.</p>
      
      ",,,,,,,6814acf7a2b0960317ac048d,6307f3c967020d1202332b77,,,instructions_practice,,,,,221178,,3.69,5,html-keyboard-response,,,,,,,,1366
6307f3c967020d1202332b77,69ItlcCTciDxKZVoww2Z,,0.7222222222222222,,False,,,2.3,r,False,False,,,j,T_target,3,,,,,768,6307f3c967020d1202332b77,1 (836).jpg,0.0-10.0-10.0-0.17,0,True,True,0,False,True,True,False,True,True,False,6,6,False,,0,,,1,,,,0,f,,1427,68177c12b166747e3416c165,images/1 (836).jpg,B,B,,6,6,0,6814acf7a2b0960317ac048d,6307f3c967020d1202332b77,,,initialTest_response,18,18,0,73,1115829,,18.60,448,image-keyboard-response,1,1,0,"current target, not in next trial",,,,1366
6307f3c967020d1202332b77,6Cl8C2dErIbr7HnfATx0,,0.8181818181818182,,True,,,2.3,r,False,False,False,,f,T_foil,3,,,,,768,6307f3c967020d1202332b77,1 (1715).jpg,0.0-6.0-10.0-0.21,0,True,False,0,False,False,False,False,True,False,True,2,1,2,,0,,,2,,,,0,j,,1189,68177c12b166747e3416c165,images/1 (1715).jpg,Fnn,Fnn,,0,0,0,6814acf7a2b0960317ac048d,6307f3c967020d1202332b77,,,initialTest_response,22,0,22,8,541267,,9.03,148,image-keyboard-response,0,1,1,"tested only, in next trial, from last trial",,,,1366
6307f3c967020d1202332b77,6CyJyvDCX4xiiEsER8Ho,,0.8843749999999998,,,,,2.3,r,False,,,,f,F,3,,,,,768,6307f3c967020d1202332b77,1 (1412).jpg,0.0-22.0-1.0-0.19,0,True,,0,False,,False,False,,False,False,,0,0,7,2,,,1,,,,0,j,,1378,68177c12b166747e3416c165,images/1 (1412).jpg,,FF,,,0,0,6814acf7a2b0960317ac048d,6307f3c967020d1202332b77,,,finalTest,,0,0,320,2201108,,36.69,1085,image-keyboard-response,,,,final Foil,,,,1366
6307f3c967020d1202332b77,6IntP7imhICTEnQMBbSa,,,,,,,2.3,r,,,,,,,3,,,,,641,6307f3c967020d1202332b77,,0.0-3.0,0,,,0,,,,,,,,,,,,,,,,,,[0],,"{'consent': ""I have read and understand this information and agree to join this study. <p style='text-align: left'> Clicking to confirm, then press 'enter' to continue.</p>""}",,97959,68177c12b166747e3416c165,,,,,,,,6814acf7a2b0960317ac048d,6307f3c967020d1202332b77,,,,,,,,114457,,1.91,3,survey-multi-choice,,,,,,,,1366
6307f3c967020d1202332b77,6O1YavG1MRuwMBQ2cUS4,,0.8838383838383836,,,,,2.3,r,False,,,,j,T_nontarget,3,,,,,768,6307f3c967020d1202332b77,1 (376).jpg,0.0-23.0-1.0-0.47,0,True,,0,True,,True,False,,False,False,,9,0,8,0,,,,,,,0,f,,1206,68177c12b166747e3416c165,images/1 (376).jpg,,A,,,23,0,6814acf7a2b0960317ac048d,6307f3c967020d1202332b77,,,finalTest,,0,0,396,2304904,,38.42,1161,image-keyboard-response,,,,"studied only, not in trial",,,,1366
6307f3c967020d1202332b77,6QirJg1v3BE4FBR9NVrA,,0.8833922261484098,,,,,2.3,r,True,,,,j,T_target,3,,,,,768,6307f3c967020d1202332b77,1 (1757).jpg,0.0-21.0-1.0-0.30,0,True,,0,True,,True,False,,True,False,,7,0,6,0,,,,,,,1,j,,1125,68177c12b166747e3416c165,images/1 (1757).jpg,,B,,,19,0,6814acf7a2b0960317ac048d,6307f3c967020d1202332b77,,,finalTest,,3,0,283,2153155,,35.89,1048,image-keyboard-response,,,,"current target, not in next trial",,,,1366
6307f3c967020d1202332b77,6QloTRm9n1IXXfscvtZD,,,,,,,2.3,r,,,,,,,3,[],[],[],,641,,,0.0-0.0,0,,,0,,,,,,,,,,,,,,,,,,,,,,,68177c12b166747e3416c165,,,,,,,,6814acf7a2b0960317ac048d,6307f3c967020d1202332b77,True,,,,,,,6820,False,0.12,0,preload,,,,,,,,1366
6307f3c967020d1202332b77,6X0ovWOylg4RSxblCF7G,,0.8833333333333333,,,,,2.3,r,True,True,True,,j,T_target,3,,,,,768,6307f3c967020d1202332b77,1 (127).jpg,0.0-20.0-1.0-0.35,0,True,,0,True,,True,False,,True,True,,5,6,5,0,,,,,,,1,j,,1107,68177c12b166747e3416c165,images/1 (127).jpg,,Dn,,,23,0,6814acf7a2b0960317ac048d,6307f3c967020d1202332b77,,,finalTest,,2,27,240,2096387,,34.95,1005,image-keyboard-response,,,,"current target, in next trial",,,,1366
6307f3c967020d1202332b77,6YlwF0Y1zhfiAzSnqEMO,,0.9,,False,,,2.3,r,True,True,,,j,T_target,3,,,,,768,6307f3c967020d1202332b77,1 (472).jpg,0.0-11.0-10.0-0.29,0,True,True,0,False,True,True,False,True,True,False,7,7,False,,0,,,1,,,,1,j,,1550,68177c12b166747e3416c165,images/1 (472).jpg,B,B,,9,9,0,6814acf7a2b0960317ac048d,6307f3c967020d1202332b77,,,initialTest_response,30,30,0,147,1289920,,21.51,536,image-keyboard-response,1,1,0,"current target, not in next trial",,,,1366
6307f3c967020d1202332b77,6gkoOqkiUS8RXc7GcoWb,,0.9333333333333333,,True,,,2.3,r,True,True,,,f,T_foil,3,,,,,768,6307f3c967020d1202332b77,1 (1551).jpg,0.0-8.0-10.0-0.14,0,True,True,0,False,False,False,False,True,True,True,4,4,5,8,0,,,1,,,,1,f,,1055,68177c12b166747e3416c165,images/1 (1551).jpg,Fnn+1,Fnn,,0,0,0,6814acf7a2b0960317ac048d,6307f3c967020d1202332b77,,,initialTest_response,15,15,13,394,820151,,13.68,293,image-keyboard-response,0,1,1,"tested only, in next trial",,,,1366
6307f3c967020d1202332b77,6gpku8B8RkQrjl3zojOi,,,,True,,,2.3,r,,,,,,T_target,3,,,,,768,6307f3c967020d1202332b77,1 (1892).jpg,0.0-12.0-2.0-0.21,0,True,True,0,,True,True,False,True,True,True,8,8,9,4,0,,,1,,,,,,,,68177c12b166747e3416c165,images/1 (1892).jpg,Dn+1,Dn,,22,22,0,6814acf7a2b0960317ac048d,6307f3c967020d1202332b77,,,initial_study,10,10,19,203,1340960,,22.36,560,image-keyboard-response,1,1,1,"current target, in next trial",,,,1366
6307f3c967020d1202332b77,6mdxNQ51aWlkb9fIfSiW,,1,,False,,,2.3,r,True,True,,,f,T_foil,3,,,,,768,6307f3c967020d1202332b77,1 (1207).jpg,0.0-6.0-10.0-0.5,0,True,True,0,False,False,False,False,True,True,False,2,2,False,8,0,,,1,,,,1,f,,970,68177c12b166747e3416c165,images/1 (1207).jpg,Fn+1,Fn,,0,0,0,6814acf7a2b0960317ac048d,6307f3c967020d1202332b77,,,initialTest_response,6,6,0,391,519982,,8.67,132,image-keyboard-response,0,1,0,"tested only, not in next trial",,,,1366
6307f3c967020d1202332b77,6moZcxHLkgI3hCdGcZUt,,,,,,,2.3,r,,,,,,,3,,,,,768,6307f3c967020d1202332b77,,0.0-10.0-5.0-0.5,0,,,0,,,,,,,,6,,,,,,,,,6,,,,,,68177c12b166747e3416c165,9,,,9,,,,6814acf7a2b0960317ac048d,6307f3c967020d1202332b77,,56,digitPresentation,,,,,1074123,,17.91,424,html-keyboard-response,,,,,,,,1366
6307f3c967020d1202332b77,6pL7XopcqaIe94NXWGvD,,0.9444444444444444,,True,,,2.3,r,True,True,,,f,T_foil,3,,,,,768,6307f3c967020d1202332b77,1 (939).jpg,0.0-12.0-10.0-0.17,0,True,True,0,False,False,False,False,True,True,True,8,8,9,3,0,,,1,,,,1,f,,1515,68177c12b166747e3416c165,images/1 (939).jpg,Fnn+1,Fnn,,0,0,0,6814acf7a2b0960317ac048d,6307f3c967020d1202332b77,,,initialTest_response,18,18,27,141,1421886,,23.71,600,image-keyboard-response,0,1,1,"tested only, in next trial",,,,1366
6307f3c967020d1202332b77,6pgGwSqLLK8AlfN7rZfU,,,,False,,,2.3,r,,,,,,T_nontarget,3,,,,,768,6307f3c967020d1202332b77,1 (157).jpg,0.0-12.0-2.0-0.5,0,False,True,0,,True,True,False,False,False,False,8,8,0,,0,,,1,,,,,,,,68177c12b166747e3416c165,images/1 (157).jpg,A,A,,6,6,0,6814acf7a2b0960317ac048d,6307f3c967020d1202332b77,,,initial_study,0,0,0,0,1307075,,21.79,544,image-keyboard-response,1,0,0,"studied only, not in trial",,,,1366
6307f3c967020d1202332b77,6qboJI3sE3M8JcRDxGUy,,,,False,,,2.3,r,,,,,,T_nontarget,3,,,,,768,6307f3c967020d1202332b77,1 (321).jpg,0.0-11.0-2.0-0.24,0,True,True,0,,True,True,False,False,False,False,7,7,0,5,0,,,1,,,,,,,,68177c12b166747e3416c165,images/1 (321).jpg,A,A,,25,25,0,6814acf7a2b0960317ac048d,6307f3c967020d1202332b77,,,initial_study,0,0,0,221,1191757,,19.87,487,image-keyboard-response,1,0,0,"studied only, not in trial",,,,1366
6307f3c967020d1202332b77,6tBFSCkm7xAYU13oBJ7L,,0.88,,False,,,2.3,r,True,True,,,f,T_foil,3,,,,,768,6307f3c967020d1202332b77,1 (1875).jpg,0.0-8.0-10.0-0.24,0,True,True,0,False,False,False,False,True,True,False,4,4,False,2,0,,,1,,,,1,f,,908,68177c12b166747e3416c165,images/1 (1875).jpg,Fn+1,Fn,,0,0,0,6814acf7a2b0960317ac048d,6307f3c967020d1202332b77,,,initialTest_response,25,25,0,75,831939,,13.87,303,image-keyboard-response,0,1,0,"tested only, not in next trial",,,,1366
6307f3c967020d1202332b77,6u7hBjy09wGocGXHExun,,0.95,,False,,,2.3,r,True,True,,,j,T_target,3,,,,,768,6307f3c967020d1202332b77,1 (2037).jpg,0.0-12.0-10.0-0.19,0,True,True,0,False,True,True,False,True,True,False,8,8,False,,0,,,1,,,,1,j,,1347,68177c12b166747e3416c165,images/1 (2037).jpg,B,B,,27,27,0,6814acf7a2b0960317ac048d,6307f3c967020d1202332b77,,,initialTest_response,20,20,0,9,1425037,,23.76,602,image-keyboard-response,1,1,0,"current target, not in next trial",,,,1366
6307f3c967020d1202332b77,6uvSNKY9HfWz59R42NiG,,0.882793017456359,,,,,2.3,r,True,True,,,j,T_target,3,,,,,768,6307f3c967020d1202332b77,1 (19).jpg,0.0-24.0-1.0-0.4,0,True,,0,True,,True,False,,True,False,,10,0,9,0,,,,,,,1,j,,1076,68177c12b166747e3416c165,images/1 (19).jpg,,Dn,,,1,0,6814acf7a2b0960317ac048d,6307f3c967020d1202332b77,,,finalTest,,21,0,401,2311940,,38.54,1166,image-keyboard-response,,,,"current target, in next trial",,,,1366
6307f3c967020d1202332b77,7AYPV0OYzXeuJLBwLeo2,,0.95,,True,,,2.3,r,True,True,True,,f,T_foil,3,,,,,768,6307f3c967020d1202332b77,1 (2280).jpg,0.0-8.0-10.0-0.19,0,True,False,0,False,False,False,False,True,False,True,4,3,4,,0,,,2,,,,1,f,,1183,68177c12b166747e3416c165,images/1 (2280).jpg,Fnn,Fnn,,0,0,0,6814acf7a2b0960317ac048d,6307f3c967020d1202332b77,,,initialTest_response,20,0,20,201,826316,,13.78,298,image-keyboard-response,0,1,1,"tested only, in next trial, from last trial",,,,1366
6307f3c967020d1202332b77,7EfU814KvQbjxClsSrFb,,0.8853211009174312,,,,,2.3,r,True,,,,j,T_nontarget,3,,,,,768,6307f3c967020d1202332b77,1 (1049).jpg,0.0-20.0-1.0-0.13,0,True,,0,True,,True,False,,False,False,,8,0,5,0,,,,,,,1,j,,959,68177c12b166747e3416c165,images/1 (1049).jpg,,A,,,9,0,6814acf7a2b0960317ac048d,6307f3c967020d1202332b77,,,finalTest,,0,0,218,2067656,,34.47,983,image-keyboard-response,,,,"studied only, not in trial",,,,1366
6307f3c967020d1202332b77,7FrEdkhaf3BcED7VJ3Qw,,0.8983050847457629,,,,,2.3,r,True,,,,j,T_target,3,,,,,768,6307f3c967020d1202332b77,1 (902).jpg,0.0-16.0-1.0-0.58,0,True,,0,True,,True,False,,True,False,,10,0,1,0,,,,,,,1,j,,915,68177c12b166747e3416c165,images/1 (902).jpg,,B,,,13,0,6814acf7a2b0960317ac048d,6307f3c967020d1202332b77,,,finalTest,,14,0,59,1886976,,31.46,824,image-keyboard-response,,,,"current target, not in next trial",,,,1366
6307f3c967020d1202332b77,7GJ6fgBBk2AzzaQdt9Sz,,0.7916666666666666,,True,,,2.3,r,True,True,,,f,T_foil,3,,,,,768,6307f3c967020d1202332b77,1 (1733).jpg,0.0-9.0-10.0-0.23,0,True,True,0,False,False,False,False,True,True,True,5,5,6,10,0,,,1,,,,1,f,,1479,68177c12b166747e3416c165,images/1 (1733).jpg,Fnn+1,Fnn,,0,0,0,6814acf7a2b0960317ac048d,6307f3c967020d1202332b77,,,initialTest_response,24,24,17,447,974363,,16.25,378,image-keyboard-response,0,1,1,"tested only, in next trial",,,,1366
6307f3c967020d1202332b77,7O0DNSRLU4FN1IKvgSUq,,0.8802395209580837,,,,,2.3,r,False,,,,f,F,3,,,,,768,6307f3c967020d1202332b77,1 (1232).jpg,0.0-22.0-1.0-0.33,0,True,,0,False,,False,False,,False,False,,0,0,7,3,,,1,,,,0,j,,1451,68177c12b166747e3416c165,images/1 (1232).jpg,,FF,,,0,0,6814acf7a2b0960317ac048d,6307f3c967020d1202332b77,,,finalTest,,0,0,334,2219100,,36.99,1099,image-keyboard-response,,,,final Foil,,,,1366
6307f3c967020d1202332b77,7OqcLOO1BUxkvsH57msX,,,,True,,,2.3,r,,,,,,T_nontarget,3,,,,,768,6307f3c967020d1202332b77,1 (1744).jpg,0.0-5.0-2.0-0.20,0,True,True,0,,True,True,False,False,False,True,1,1,2,5,0,,,1,,,,,,,,68177c12b166747e3416c165,images/1 (1744).jpg,Cn+1,Cn,,21,21,0,6814acf7a2b0960317ac048d,6307f3c967020d1202332b77,,,initial_study,0,0,25,243,266663,,4.45,27,image-keyboard-response,1,0,1,"studied only, in next trial",,,,1366
6307f3c967020d1202332b77,7R7Trfs6yFq1LFqcQklm,,,,False,,,2.3,r,,,,,,T_nontarget,3,,,,,768,6307f3c967020d1202332b77,1 (1830).jpg,0.0-13.0-2.0-0.0,0,True,True,0,,True,True,False,False,False,False,9,9,0,1,0,,,1,,,,,,,,68177c12b166747e3416c165,images/1 (1830).jpg,A,A,,1,1,0,6814acf7a2b0960317ac048d,6307f3c967020d1202332b77,,,initial_study,0,0,0,14,1446693,,24.12,615,image-keyboard-response,1,0,0,"studied only, not in trial",,,,1366
6307f3c967020d1202332b77,7SMkgRqpJMhbCMUUa6FN,,0.7777777777777778,,False,,,2.3,r,False,False,,,j,T_target,3,,,,,768,6307f3c967020d1202332b77,1 (557).jpg,0.0-13.0-10.0-0.8,0,True,True,0,False,True,True,False,True,True,False,9,9,False,,0,,,1,,,,0,f,,1216,68177c12b166747e3416c165,images/1 (557).jpg,B,B,,27,27,0,6814acf7a2b0960317ac048d,6307f3c967020d1202332b77,,,initialTest_response,9,9,0,258,1557356,,25.96,667,image-keyboard-response,1,1,0,"current target, not in next trial",,,,1366
6307f3c967020d1202332b77,7SuQvi6SCD9pSSHLVcxk,,,,False,,,2.3,r,,,,,,T_nontarget,3,,,,,768,6307f3c967020d1202332b77,1 (172).jpg,0.0-5.0-2.0-0.5,0,False,True,0,,True,True,False,False,False,False,1,1,0,,0,,,1,,,,,,,,68177c12b166747e3416c165,images/1 (172).jpg,A,A,,6,6,0,6814acf7a2b0960317ac048d,6307f3c967020d1202332b77,,,initial_study,0,0,0,0,234896,,3.92,12,image-keyboard-response,1,0,0,"studied only, not in trial",,,,1366
6307f3c967020d1202332b77,7U8cHs3oDzOqMkgUxibt,,,,False,,,2.3,r,,,,,,T_nontarget,3,,,,,768,6307f3c967020d1202332b77,1 (1119).jpg,0.0-10.0-2.0-0.7,0,True,True,0,,True,True,False,False,False,False,6,6,0,1,0,,,1,,,,,,,,68177c12b166747e3416c165,images/1 (1119).jpg,A,A,,8,8,0,6814acf7a2b0960317ac048d,6307f3c967020d1202332b77,,,initial_study,0,0,0,23,1007071,,16.79,394,image-keyboard-response,1,0,0,"studied only, not in trial",,,,1366
6307f3c967020d1202332b77,7UOrbP9xGJhIu8wZxBcq,,0.75,,True,,,2.3,r,False,False,,,j,T_target,3,,,,,768,6307f3c967020d1202332b77,1 (932).jpg,0.0-14.0-10.0-0.3,0,True,True,0,False,True,True,False,True,True,False,10,10,0,,0,,,1,,,,0,f,,1138,68177c12b166747e3416c165,images/1 (932).jpg,Dn+1,Dn,,15,15,0,6814acf7a2b0960317ac048d,6307f3c967020d1202332b77,,,initialTest_response,4,4,0,273,1694998,,28.26,738,image-keyboard-response,1,1,1,"current target, in next trial",,,,1366
6307f3c967020d1202332b77,7WfPbe747FGbozlvtPgL,,0.8947368421052632,,True,,,2.3,r,True,True,,,j,T_target,3,,,,,768,6307f3c967020d1202332b77,1 (2220).jpg,0.0-11.0-10.0-0.18,0,True,True,0,False,True,True,False,True,True,True,7,7,8,,0,,,1,,,,1,j,,1772,68177c12b166747e3416c165,images/1 (2220).jpg,Dn+1,Dn,,2,2,0,6814acf7a2b0960317ac048d,6307f3c967020d1202332b77,,,initialTest_response,19,19,17,254,1271360,,21.20,525,image-keyboard-response,1,1,1,"current target, in next trial",,,,1366
6307f3c967020d1202332b77,7by2tO2KN64jYbyh8x2H,,,,,,,2.3,r,,,,,,,3,,,,,768,6307f3c967020d1202332b77,,0.0-10.0-3.0-0.0,0,,,0,,,,,,,,,,,,,,,,,,,,,,,68177c12b166747e3416c165,Summing up the digits as they appear,,,,,,,6814acf7a2b0960317ac048d,6307f3c967020d1202332b77,,,prompt,,,,,1055822,,17.60,417,html-keyboard-response,,,,,,,,1366
6307f3c967020d1202332b77,7c9CN6xYnbU3tcLnXQHz,,0.8932584269662921,,,,,2.3,r,True,,,,f,F,3,,,,,768,6307f3c967020d1202332b77,1 (266).jpg,0.0-19.0-1.0-0.21,0,True,,0,False,,False,False,,False,False,,0,0,4,0,,,1,,,,1,f,,930,68177c12b166747e3416c165,images/1 (266).jpg,,FF,,,0,0,6814acf7a2b0960317ac048d,6307f3c967020d1202332b77,,,finalTest,,0,0,178,2016342,,33.61,943,image-keyboard-response,,,,final Foil,,,,1366
6307f3c967020d1202332b77,7eQdosUrVvJQ0Ptnpzp8,,,,,,,2.3,r,,,,,,,3,,,,,768,6307f3c967020d1202332b77,,0.0-8.0-5.0-0.3,0,,,0,,,,,,,,4,,,,,,,,,4,,,,,,68177c12b166747e3416c165,6,,,6,,,,6814acf7a2b0960317ac048d,6307f3c967020d1202332b77,,50,digitPresentation,,,,,778935,,12.99,270,html-keyboard-response,,,,,,,,1366
6307f3c967020d1202332b77,7h3sX6w4p4U7WaV0NHcm,,,,,,,2.3,r,,,,,,,3,,,,,768,6307f3c967020d1202332b77,,0.0-13.0-5.0-0.6,0,,,0,,,,,,,,9,,,,,,,,,7,,,,,,68177c12b166747e3416c165,4,,,4,,,,6814acf7a2b0960317ac048d,6307f3c967020d1202332b77,,60,digitPresentation,,,,,1531577,,25.53,653,html-keyboard-response,,,,,,,,1366
6307f3c967020d1202332b77,7kc8UgwrIl7Y4as6LMoN,,,,,,,2.3,r,,,,,,,3,,,,,768,6307f3c967020d1202332b77,,0.0-12.0-5.0-0.5,0,,,0,,,,,,,,8,,,,,,,,,6,,,,,,68177c12b166747e3416c165,6,,,6,,,,6814acf7a2b0960317ac048d,6307f3c967020d1202332b77,,57,digitPresentation,,,,,1378275,,22.98,576,html-keyboard-response,,,,,,,,1366
6307f3c967020d1202332b77,7v9iuYwDNGBbtd7eGxJV,,0.7647058823529411,,True,,,2.3,r,False,True,False,,f,T_foil,3,,,,,768,6307f3c967020d1202332b77,1 (1733).jpg,0.0-10.0-10.0-0.16,0,True,False,0,False,False,False,False,True,False,True,6,5,6,,0,,,2,,,,0,j,,1260,68177c12b166747e3416c165,images/1 (1733).jpg,Fnn,Fnn,,0,0,0,6814acf7a2b0960317ac048d,6307f3c967020d1202332b77,,,initialTest_response,17,0,17,447,1114294,,18.58,447,image-keyboard-response,0,1,1,"tested only, in next trial, from last trial",,,,1366
6307f3c967020d1202332b77,7vT6mfyxVjxeBfOQ4Bbb,,,,,,,2.3,r,,,,,,,3,,,,,768,6307f3c967020d1202332b77,,0.0-10.0-5.0-0.3,0,,,0,,,,,,,,6,,,,,,,,,4,,,,,,68177c12b166747e3416c165,9,,,9,,,,6814acf7a2b0960317ac048d,6307f3c967020d1202332b77,,56,digitPresentation,,,,,1068071,,17.81,422,html-keyboard-response,,,,,,,,1366
6307f3c967020d1202332b77,879EiAFlwO4uS1hK6cKj,,0.7727272727272727,,False,,,2.3,r,False,False,,,j,T_target,3,,,,,768,6307f3c967020d1202332b77,1 (415).jpg,0.0-13.0-10.0-0.21,0,False,True,0,False,True,True,False,True,True,False,9,9,False,,0,,,1,,,,0,f,,1087,68177c12b166747e3416c165,images/1 (415).jpg,B,B,,14,14,0,6814acf7a2b0960317ac048d,6307f3c967020d1202332b77,,,initialTest_response,22,22,0,0,1574961,,26.26,680,image-keyboard-response,1,1,0,"current target, not in next trial",,,,1366
6307f3c967020d1202332b77,8AtSN5q9MR8tVBk2p5sE,,,,False,,,2.3,r,,,,,,T_nontarget,3,,,,,768,6307f3c967020d1202332b77,1 (1358).jpg,0.0-5.0-2.0-0.9,0,False,True,0,,True,True,False,False,False,False,1,1,0,,0,,,1,,,,,,,,68177c12b166747e3416c165,images/1 (1358).jpg,A,A,,10,10,0,6814acf7a2b0960317ac048d,6307f3c967020d1202332b77,,,initial_study,0,0,0,0,243379,,4.06,16,image-keyboard-response,1,0,0,"studied only, not in trial",,,,1366
6307f3c967020d1202332b77,8Bt4WliIAZujGZagVa5V,,,,False,,,2.3,r,,,,,,T_nontarget,3,,,,,768,6307f3c967020d1202332b77,1 (1363).jpg,0.0-10.0-2.0-0.11,0,True,True,0,,True,True,False,False,False,False,6,6,0,7,0,,,1,,,,,,,,68177c12b166747e3416c165,images/1 (1363).jpg,A,A,,12,12,0,6814acf7a2b0960317ac048d,6307f3c967020d1202332b77,,,initial_study,0,0,0,308,1015540,,16.93,398,image-keyboard-response,1,0,0,"studied only, not in trial",,,,1366
6307f3c967020d1202332b77,8C1Q7PWL9vXmWyNacITL,,,,False,,,2.3,r,,,,,,T_nontarget,3,,,,,768,6307f3c967020d1202332b77,1 (1043).jpg,0.0-10.0-2.0-0.0,0,True,True,0,,True,True,False,False,False,False,6,6,0,5,0,,,1,,,,,,,,68177c12b166747e3416c165,images/1 (1043).jpg,A,A,,1,1,0,6814acf7a2b0960317ac048d,6307f3c967020d1202332b77,,,initial_study,0,0,0,217,992254,,16.54,387,image-keyboard-response,1,0,0,"studied only, not in trial",,,,1366
6307f3c967020d1202332b77,8C9pa7hjvOVN7hQK2cxq,,0.8811594202898549,,,,,2.3,r,True,,False,,j,T_nontarget,3,,,,,768,6307f3c967020d1202332b77,1 (917).jpg,0.0-22.0-1.0-0.44,0,True,,0,True,,True,False,,False,False,,9,0,7,0,,,,,,,1,j,,1280,68177c12b166747e3416c165,images/1 (917).jpg,,Cn,,,7,0,6814acf7a2b0960317ac048d,6307f3c967020d1202332b77,,,finalTest,,0,0,345,2234693,,37.25,1110,image-keyboard-response,,,,"studied only, in next trial",,,,1366
6307f3c967020d1202332b77,8DSeT3fS26dwqndJF7GN,,,,False,,,2.3,r,,,,,,T_target,3,,,,,768,6307f3c967020d1202332b77,1 (1142).jpg,0.0-11.0-2.0-0.19,0,False,True,0,,True,True,False,True,True,False,7,7,0,,0,,,1,,,,,,,,68177c12b166747e3416c165,images/1 (1142).jpg,B,B,,20,20,0,6814acf7a2b0960317ac048d,6307f3c967020d1202332b77,,,initial_study,29,29,0,0,1181157,,19.69,482,image-keyboard-response,1,1,0,"current target, not in next trial",,,,1366
6307f3c967020d1202332b77,8Ewri9PtxHNzx6WbSCTR,,,,False,,,2.3,r,,,,,,T_target,3,,,,,768,6307f3c967020d1202332b77,1 (1981).jpg,0.0-12.0-2.0-0.12,0,True,True,0,,True,True,False,True,True,False,8,8,0,2,0,,,1,,,,,,,,68177c12b166747e3416c165,images/1 (1981).jpg,B,B,,13,13,0,6814acf7a2b0960317ac048d,6307f3c967020d1202332b77,,,initial_study,16,16,0,108,1321909,,22.04,551,image-keyboard-response,1,1,0,"current target, not in next trial",,,,1366
6307f3c967020d1202332b77,8N3TDoG8bkaf3J4jWzTA,,0.8844621513944223,,,,,2.3,r,True,,,,j,T_target,3,,,,,768,6307f3c967020d1202332b77,1 (2082).jpg,0.0-20.0-1.0-0.46,0,True,,0,True,,True,False,,True,False,,8,0,5,0,,,,,,,1,j,,998,68177c12b166747e3416c165,images/1 (2082).jpg,,B,,,15,0,6814acf7a2b0960317ac048d,6307f3c967020d1202332b77,,,finalTest,,1,0,251,2110645,,35.18,1016,image-keyboard-response,,,,"current target, not in next trial",,,,1366
6307f3c967020d1202332b77,8TBta0gMCpVLEraLnv0F,,0.8924731182795699,,,,,2.3,r,True,True,False,,j,T_foil,3,,,,,768,6307f3c967020d1202332b77,1 (427).jpg,0.0-19.0-1.0-0.29,0,True,,0,True,,False,False,,True,True,,6,7,4,6,,,,,,,1,j,,1118,68177c12b166747e3416c165,images/1 (427).jpg,,Fnn,,,0,0,6814acf7a2b0960317ac048d,6307f3c967020d1202332b77,,,finalTest,,15,17,186,2026514,,33.78,951,image-keyboard-response,,,,"tested only, in next trial",,,,1366
6307f3c967020d1202332b77,8TFPB5fmhk0S3bCebY7x,,0.8888888888888888,,,,,2.3,r,True,,,,f,F,3,,,,,768,6307f3c967020d1202332b77,1 (350).jpg,0.0-20.0-1.0-0.11,0,True,,0,False,,False,False,,False,False,,0,0,5,7,,,1,,,,1,f,,1520,68177c12b166747e3416c165,images/1 (350).jpg,,FF,,,0,0,6814acf7a2b0960317ac048d,6307f3c967020d1202332b77,,,finalTest,,0,0,216,2065217,,34.43,981,image-keyboard-response,,,,final Foil,,,,1366
6307f3c967020d1202332b77,8abrT96qQ2s702Ez7Swf,,,,True,,,2.3,r,,,,,,T_nontarget,3,,,,,768,6307f3c967020d1202332b77,1 (1187).jpg,0.0-10.0-2.0-0.12,0,True,True,0,,True,True,False,False,False,True,6,6,7,10,0,,,1,,,,,,,,68177c12b166747e3416c165,images/1 (1187).jpg,Cn+1,Cn,,13,13,0,6814acf7a2b0960317ac048d,6307f3c967020d1202332b77,,,initial_study,0,0,4,483,1017655,,16.97,399,image-keyboard-response,1,0,1,"studied only, in next trial",,,,1366
6307f3c967020d1202332b77,8kX4atmDEU0SkGUTHCah,,,,False,,,2.3,r,,,,,,T_nontarget,3,,,,,768,6307f3c967020d1202332b77,1 (2296).jpg,0.0-10.0-2.0-0.27,0,True,True,0,,True,True,False,False,False,False,6,6,0,9,0,,,1,,,,,,,,68177c12b166747e3416c165,images/1 (2296).jpg,A,A,,28,28,0,6814acf7a2b0960317ac048d,6307f3c967020d1202332b77,,,initial_study,0,0,0,398,1049456,,17.50,414,image-keyboard-response,1,0,0,"studied only, not in trial",,,,1366
6307f3c967020d1202332b77,8lXiXsMOcrSiKUDDOENt,,1,,False,,,2.3,r,True,True,,,j,T_target,3,,,,,768,6307f3c967020d1202332b77,1 (1360).jpg,0.0-13.0-10.0-0.4,0,True,True,0,False,True,True,False,True,True,False,9,9,False,,0,,,1,,,,1,j,,989,68177c12b166747e3416c165,images/1 (1360).jpg,B,B,,13,13,0,6814acf7a2b0960317ac048d,6307f3c967020d1202332b77,,,initialTest_response,5,5,0,425,1551845,,25.87,663,image-keyboard-response,1,1,0,"current target, not in next trial",,,,1366
6307f3c967020d1202332b77,8vQXTna7N1MQ3uQt2u8K,,0.6666666666666666,,True,,,2.3,r,False,True,False,,f,T_foil,3,,,,,768,6307f3c967020d1202332b77,1 (1448).jpg,0.0-12.0-10.0-0.2,0,False,False,0,False,False,True,False,True,True,True,8,7,8,,0,,,2,,,,0,j,,1456,68177c12b166747e3416c165,images/1 (1448).jpg,Dn,Dn,,0,7,0,6814acf7a2b0960317ac048d,6307f3c967020d1202332b77,,,initialTest_response,3,7,3,0,1399177,,23.33,585,image-keyboard-response,1,1,1,"current target, in next trial, from last trial",,,,1366
6307f3c967020d1202332b77,8vbks6pCm6mYtr3l8ncA,,,,False,,,2.3,r,,,,,,T_nontarget,3,,,,,768,6307f3c967020d1202332b77,1 (230).jpg,0.0-9.0-2.0-0.26,0,False,True,0,,True,True,False,False,False,False,5,5,0,,0,,,1,,,,,,,,68177c12b166747e3416c165,images/1 (230).jpg,A,A,,27,27,0,6814acf7a2b0960317ac048d,6307f3c967020d1202332b77,,,initial_study,0,0,0,0,899437,,15.00,337,image-keyboard-response,1,0,0,"studied only, not in trial",,,,1366
6307f3c967020d1202332b77,8wzALyOcWRyhPhSKJt5K,,0.8804664723032068,,,,,2.3,r,False,,,,j,T_nontarget,3,,,,,768,6307f3c967020d1202332b77,1 (2271).jpg,0.0-22.0-1.0-0.42,0,True,,0,True,,True,False,,False,False,,9,0,7,0,,,,,,,0,f,,1499,68177c12b166747e3416c165,images/1 (2271).jpg,,A,,,10,0,6814acf7a2b0960317ac048d,6307f3c967020d1202332b77,,,finalTest,,0,0,343,2231646,,37.20,1108,image-keyboard-response,,,,"studied only, not in trial",,,,1366
6307f3c967020d1202332b77,9088dj6tiolsD0vJdcWz,,0.8878504672897196,,,,,2.3,r,True,,,,f,F,3,,,,,768,6307f3c967020d1202332b77,1 (1058).jpg,0.0-20.0-1.0-0.9,0,True,,0,False,,False,False,,False,False,,0,0,5,0,,,1,,,,1,f,,1271,68177c12b166747e3416c165,images/1 (1058).jpg,,FF,,,0,0,6814acf7a2b0960317ac048d,6307f3c967020d1202332b77,,,finalTest,,0,0,214,2062500,,34.38,979,image-keyboard-response,,,,final Foil,,,,1366
6307f3c967020d1202332b77,93DXvuF6AZg9ny9lIbgm,,0.9006211180124224,,,,,2.3,r,True,,,,f,F,3,,,,,768,6307f3c967020d1202332b77,1 (683).jpg,0.0-19.0-1.0-0.4,0,True,,0,False,,False,False,,False,False,,0,0,4,5,,,1,,,,1,f,,1132,68177c12b166747e3416c165,images/1 (683).jpg,,FF,,,0,0,6814acf7a2b0960317ac048d,6307f3c967020d1202332b77,,,finalTest,,0,0,161,1995095,,33.26,926,image-keyboard-response,,,,final Foil,,,,1366
6307f3c967020d1202332b77,9CztAZTj6Y1DrKUzIXpe,,0.9102564102564102,,,,,2.3,r,True,,,,f,F,3,,,,,768,6307f3c967020d1202332b77,1 (2204).jpg,0.0-17.0-1.0-0.17,0,True,,0,False,,False,False,,False,False,,0,0,2,0,,,1,,,,1,f,,894,68177c12b166747e3416c165,images/1 (2204).jpg,,FF,,,0,0,6814acf7a2b0960317ac048d,6307f3c967020d1202332b77,,,finalTest,,0,0,78,1906886,,31.79,843,image-keyboard-response,,,,final Foil,,,,1366
6307f3c967020d1202332b77,9M3qCzBqexpSpzlvX4vA,,0.9186046511627907,,,,,2.3,r,True,,,,j,T_nontarget,3,,,,,768,6307f3c967020d1202332b77,1 (2022).jpg,0.0-17.0-1.0-0.25,0,True,,0,True,,True,False,,False,False,,3,0,2,0,,,,,,,1,j,,1005,68177c12b166747e3416c165,images/1 (2022).jpg,,A,,,24,0,6814acf7a2b0960317ac048d,6307f3c967020d1202332b77,,,finalTest,,0,0,86,1915516,,31.93,851,image-keyboard-response,,,,"studied only, not in trial",,,,1366
6307f3c967020d1202332b77,9MSt9jfdLA9MAwpHnpwu,,0.883190883190883,,,,,2.3,r,True,,,,f,F,3,,,,,768,6307f3c967020d1202332b77,1 (755).jpg,0.0-23.0-1.0-0.2,0,True,,0,False,,False,False,,False,False,,0,0,8,8,,,1,,,,1,f,,1096,68177c12b166747e3416c165,images/1 (755).jpg,,FF,,,0,0,6814acf7a2b0960317ac048d,6307f3c967020d1202332b77,,,finalTest,,0,0,351,2243394,,37.40,1116,image-keyboard-response,,,,final Foil,,,,1366
6307f3c967020d1202332b77,9MsEdEAQN56gct7ELyeP,,0.8811475409836066,,,,,2.3,r,False,,,,f,F,3,,,,,768,6307f3c967020d1202332b77,1 (1233).jpg,0.0-20.0-1.0-0.39,0,True,,0,False,,False,False,,False,False,,0,0,5,1,,,1,,,,0,j,,1402,68177c12b166747e3416c165,images/1 (1233).jpg,,FF,,,0,0,6814acf7a2b0960317ac048d,6307f3c967020d1202332b77,,,finalTest,,0,0,244,2101416,,35.03,1009,image-keyboard-response,,,,final Foil,,,,1366
6307f3c967020d1202332b77,9PH8U1Mo4uNOp3nI52SR,,0.7222222222222222,,True,,,2.3,r,False,True,False,,f,T_foil,3,,,,,768,6307f3c967020d1202332b77,1 (284).jpg,0.0-14.0-10.0-0.17,0,True,False,0,False,False,True,False,True,True,False,10,9,0,,0,,,2,,,,0,j,,1326,68177c12b166747e3416c165,images/1 (284).jpg,Dn,Dn,,0,29,0,6814acf7a2b0960317ac048d,6307f3c967020d1202332b77,,,initialTest_response,18,29,0,330,1713285,,28.56,752,image-keyboard-response,1,1,1,"current target, in next trial, from last trial",,,,1366
6307f3c967020d1202332b77,9TS3ufMLcRw1JZ7bIiBx,,0.9050632911392406,,,,,2.3,r,True,,,,f,F,3,,,,,768,6307f3c967020d1202332b77,1 (791).jpg,0.0-19.0-1.0-0.1,0,True,,0,False,,False,False,,False,False,,0,0,4,5,,,1,,,,1,f,,1212,68177c12b166747e3416c165,images/1 (791).jpg,,FF,,,0,0,6814acf7a2b0960317ac048d,6307f3c967020d1202332b77,,,finalTest,,0,0,158,1991441,,33.20,923,image-keyboard-response,,,,final Foil,,,,1366
6307f3c967020d1202332b77,9UX8rNMSRghm7MwdYpNK,,0.9152542372881356,,,,,2.3,r,True,True,False,,j,T_foil,3,,,,,768,6307f3c967020d1202332b77,1 (963).jpg,0.0-18.0-1.0-0.9,0,True,,0,True,,False,False,,True,False,,9,0,3,9,,,,,,,1,j,,854,68177c12b166747e3416c165,images/1 (963).jpg,,Fnn,,,0,0,6814acf7a2b0960317ac048d,6307f3c967020d1202332b77,,,finalTest,,1,0,118,1947366,,32.46,883,image-keyboard-response,,,,"tested only, in next trial",,,,1366
6307f3c967020d1202332b77,9Vz2trc8Ffk2LPgfGV3J,,0.9101123595505618,,,,,2.3,r,True,,,,f,F,3,,,,,768,6307f3c967020d1202332b77,1 (228).jpg,0.0-17.0-1.0-0.28,0,True,,0,False,,False,False,,False,False,,0,0,2,0,,,1,,,,1,f,,894,68177c12b166747e3416c165,images/1 (228).jpg,,FF,,,0,0,6814acf7a2b0960317ac048d,6307f3c967020d1202332b77,,,finalTest,,0,0,89,1918537,,31.98,854,image-keyboard-response,,,,final Foil,,,,1366
6307f3c967020d1202332b77,9Xrb4b59ZbxrTJ1t6JSm,,0.8975903614457831,,,,,2.3,r,True,,,,f,F,3,,,,,768,6307f3c967020d1202332b77,1 (226).jpg,0.0-19.0-1.0-0.9,0,True,,0,False,,False,False,,False,False,,0,0,4,9,,,1,,,,1,f,,970,68177c12b166747e3416c165,images/1 (226).jpg,,FF,,,0,0,6814acf7a2b0960317ac048d,6307f3c967020d1202332b77,,,finalTest,,0,0,166,2001117,,33.36,931,image-keyboard-response,,,,final Foil,,,,1366
6307f3c967020d1202332b77,9c5lko2mouGVttFglkNK,,0.8848920863309351,,,,,2.3,r,True,,,,f,F,3,,,,,768,6307f3c967020d1202332b77,1 (1569).jpg,0.0-24.0-1.0-0.20,0,True,,0,False,,False,False,,False,False,,0,0,9,9,,,1,,,,1,f,,2368,68177c12b166747e3416c165,images/1 (1569).jpg,,FF,,,0,0,6814acf7a2b0960317ac048d,6307f3c967020d1202332b77,,,finalTest,,0,0,417,2334586,,38.92,1182,image-keyboard-response,,,,final Foil,,,,1366
6307f3c967020d1202332b77,9eiFs1qaFYNVmobAMOkX,,,,False,,,2.3,r,,,,,,T_target,3,,,,,768,6307f3c967020d1202332b77,1 (126).jpg,0.0-11.0-2.0-0.13,0,True,True,0,,True,True,False,True,True,False,7,7,0,8,0,,,1,,,,,,,,68177c12b166747e3416c165,images/1 (126).jpg,B,B,,14,14,0,6814acf7a2b0960317ac048d,6307f3c967020d1202332b77,,,initial_study,25,25,0,383,1168457,,19.48,476,image-keyboard-response,1,1,0,"current target, not in next trial",,,,1366
6307f3c967020d1202332b77,9jiEVGOOvSiWs3OOjPlh,,0.8760330578512395,,,,,2.3,r,True,,,,j,T_target,3,,,,,768,6307f3c967020d1202332b77,1 (2208).JPG,0.0-25.0-1.0-0.39,0,True,,0,True,,True,False,,True,False,,2,0,10,0,,,,,,,1,j,,1521,68177c12b166747e3416c165,images/1 (2208).JPG,,B,,,7,0,6814acf7a2b0960317ac048d,6307f3c967020d1202332b77,,,finalTest,,29,0,484,2437371,,40.63,1249,image-keyboard-response,,,,"current target, not in next trial",,,,1366
6307f3c967020d1202332b77,9leErtxYwYzTb0OQeWQN,,0.8834498834498833,,,,,2.3,r,True,,,,j,T_target,3,,,,,768,6307f3c967020d1202332b77,1 (971).jpg,0.0-24.0-1.0-0.32,0,True,,0,True,,True,False,,True,False,,2,0,9,0,,,,,,,1,j,,1175,68177c12b166747e3416c165,images/1 (971).jpg,,B,,,6,0,6814acf7a2b0960317ac048d,6307f3c967020d1202332b77,,,finalTest,,1,0,429,2353057,,39.22,1194,image-keyboard-response,,,,"current target, not in next trial",,,,1366
6307f3c967020d1202332b77,9oXNIOBdbvU6hCEucu5y,,0.9051094890510949,,,,,2.3,r,True,,False,,j,T_nontarget,3,,,,,768,6307f3c967020d1202332b77,1 (619).jpg,0.0-18.0-1.0-0.28,0,True,,0,True,,True,False,,False,True,,2,3,3,0,,,,,,,1,j,,809,68177c12b166747e3416c165,images/1 (619).jpg,,Cn,,,15,0,6814acf7a2b0960317ac048d,6307f3c967020d1202332b77,,,finalTest,,0,29,137,1966836,,32.79,902,image-keyboard-response,,,,"studied only, in next trial",,,,1366
6307f3c967020d1202332b77,9uO52JeJCxHZ3T6MuWzk,,,,,,,2.3,r,,,,,,,3,,,,,768,6307f3c967020d1202332b77,,0.0-7.0-5.0-0.2,0,,,0,,,,,,,,3,,,,,,,,,3,,,,,,68177c12b166747e3416c165,9,,,9,,,,6814acf7a2b0960317ac048d,6307f3c967020d1202332b77,,51,digitPresentation,,,,,631649,,10.53,193,html-keyboard-response,,,,,,,,1366
6307f3c967020d1202332b77,9wAUgTBzLstA1lPG1RQT,,0.8847184986595172,,,,,2.3,r,False,,,,j,T_foil,3,,,,,768,6307f3c967020d1202332b77,1 (1267).jpg,0.0-23.0-1.0-0.24,0,True,,0,True,,False,False,,True,False,,7,False,8,7,,,,,,,0,f,,1399,68177c12b166747e3416c165,images/1 (1267).jpg,,Fn,,,0,0,6814acf7a2b0960317ac048d,6307f3c967020d1202332b77,,,finalTest,,24,0,373,2273646,,37.90,1138,image-keyboard-response,,,,"tested only, not in next trial",,,,1366
6307f3c967020d1202332b77,9wSjEptt11QGgwhe57FD,,,,False,,,2.3,r,,,,,,T_target,3,,,,,768,6307f3c967020d1202332b77,1 (557).jpg,0.0-13.0-2.0-0.26,0,True,True,0,,True,True,False,True,True,False,9,9,0,6,0,,,1,,,,,,,,68177c12b166747e3416c165,images/1 (557).jpg,B,B,,27,27,0,6814acf7a2b0960317ac048d,6307f3c967020d1202332b77,,,initial_study,9,9,0,258,1501793,,25.04,641,image-keyboard-response,1,1,0,"current target, not in next trial",,,,1366
6307f3c967020d1202332b77,A13Z2DV96i0lxnXtuu7I,,1,,True,,,2.3,r,True,False,True,,f,T_foil,3,,,,,768,6307f3c967020d1202332b77,1 (2010).jpg,0.0-6.0-10.0-0.6,0,False,False,0,False,False,False,False,True,False,True,2,1,2,,0,,,2,,,,1,f,,1665,68177c12b166747e3416c165,images/1 (2010).jpg,Fnn,Fnn,,0,0,0,6814acf7a2b0960317ac048d,6307f3c967020d1202332b77,,,initialTest_response,7,0,7,0,521758,,8.70,133,image-keyboard-response,0,1,1,"tested only, in next trial, from last trial",,,,1366
6307f3c967020d1202332b77,A23xQoFWwoZ1nbLWgNgZ,,,,True,,,2.3,r,,,,,,T_nontarget,3,,,,,768,6307f3c967020d1202332b77,1 (830).jpg,0.0-14.0-2.0-0.29,0,True,True,0,,True,True,False,False,False,False,10,10,0,10,0,,,1,,,,,,,,68177c12b166747e3416c165,images/1 (830).jpg,Cn+1,Cn,,30,30,0,6814acf7a2b0960317ac048d,6307f3c967020d1202332b77,,,initial_study,0,0,0,472,1651846,,27.54,720,image-keyboard-response,1,0,1,"studied only, in next trial",,,,1366
6307f3c967020d1202332b77,A28AKXIgzD69SXIsVVoT,,0.8867924528301887,,,,,2.3,r,True,,,,j,T_target,3,,,,,768,6307f3c967020d1202332b77,1 (1327).jpg,0.0-21.0-1.0-0.12,0,True,,0,True,,True,False,,True,False,,4,0,6,0,,,,,,,1,j,,983,68177c12b166747e3416c165,images/1 (1327).jpg,,B,,,7,0,6814acf7a2b0960317ac048d,6307f3c967020d1202332b77,,,finalTest,,14,0,265,2128229,,35.48,1030,image-keyboard-response,,,,"current target, not in next trial",,,,1366
6307f3c967020d1202332b77,A2Lsey6X2PyhcTutcBUM,,,,,,,2.3,r,,,,,,,3,,,,,768,6307f3c967020d1202332b77,,0.0-11.0-9.0-0.0,0,,,0,,,,,,,,,,,,,,,,,,,,,,,68177c12b166747e3416c165,"<div style=""font-size:60px;"">+</div>",,,,,,,6814acf7a2b0960317ac048d,6307f3c967020d1202332b77,,,fixation,,,,,1240074,,20.67,506,html-keyboard-response,,,,,,,,1366
6307f3c967020d1202332b77,A5Z4I6HzPn67uNh5NKup,,,,,,,2.3,r,True,,,51,,,3,,,,,768,6307f3c967020d1202332b77,,0.0-11.0-6.0-0.0-0.0,0,,,0,,,,,,,,,,,,,,,,,,,,{'Q0': '51'},51,4510,68177c12b166747e3416c165,,,,,,,,6814acf7a2b0960317ac048d,6307f3c967020d1202332b77,,,answer_counting,,,,,1234320,,20.58,503,survey-text,,,,,,,,1366
6307f3c967020d1202332b77,A7clOhcpO0bYWgB4Clz4,,,,True,,,2.3,r,,,,,,T_nontarget,3,,,,,768,6307f3c967020d1202332b77,1 (2352).jpg,0.0-6.0-2.0-0.26,0,True,True,0,,True,True,False,False,False,True,2,2,3,5,0,,,1,,,,,,,,68177c12b166747e3416c165,images/1 (2352).jpg,Cn+1,Cn,,27,27,0,6814acf7a2b0960317ac048d,6307f3c967020d1202332b77,,,initial_study,0,0,25,249,466165,,7.78,109,image-keyboard-response,1,0,1,"studied only, in next trial",,,,1366
6307f3c967020d1202332b77,A8AGJ0lbYdFXFdHMPtEq,,,,,,,2.3,r,,,,,,,3,,,,,768,6307f3c967020d1202332b77,,0.0-12.0-5.0-0.0,0,,,0,,,,,,,,8,,,,,,,,,1,,,,,,68177c12b166747e3416c165,9,,,9,,,,6814acf7a2b0960317ac048d,6307f3c967020d1202332b77,,57,digitPresentation,,,,,1363159,,22.73,571,html-keyboard-response,,,,,,,,1366
6307f3c967020d1202332b77,AFoBMBEhyv45buHq0GkO,,1,,False,,,2.3,r,True,True,,,j,T_target,3,,,,,768,6307f3c967020d1202332b77,1 (2251).jpg,0.0-10.0-10.0-0.6,0,True,True,0,False,True,True,False,True,True,False,6,6,False,,0,,,1,,,,1,j,,1270,68177c12b166747e3416c165,images/1 (2251).jpg,B,B,,27,27,0,6814acf7a2b0960317ac048d,6307f3c967020d1202332b77,,,initialTest_response,7,7,0,315,1100256,,18.34,437,image-keyboard-response,1,1,0,"current target, not in next trial",,,,1366
6307f3c967020d1202332b77,ALlGcy6m6deubhVWGcAS,,0.7619047619047619,,True,,,2.3,r,False,True,False,,f,T_foil,3,,,,,768,6307f3c967020d1202332b77,1 (2114).jpg,0.0-9.0-10.0-0.20,0,False,False,0,False,False,False,False,True,False,True,5,4,5,,0,,,2,,,,0,j,,1395,68177c12b166747e3416c165,images/1 (2114).jpg,Fnn,Fnn,,0,0,0,6814acf7a2b0960317ac048d,6307f3c967020d1202332b77,,,initialTest_response,21,0,21,0,970230,,16.18,375,image-keyboard-response,0,1,1,"tested only, in next trial, from last trial",,,,1366
6307f3c967020d1202332b77,ANQ9aI1AH1sfqQTPcRPR,,0.7619047619047619,,True,,,2.3,r,True,True,,,j,T_target,3,,,,,768,6307f3c967020d1202332b77,1 (2362).jpg,0.0-10.0-10.0-0.20,0,True,True,0,False,True,True,False,True,True,True,6,6,7,,0,,,1,,,,1,j,,1061,68177c12b166747e3416c165,images/1 (2362).jpg,Dn+1,Dn,,15,15,0,6814acf7a2b0960317ac048d,6307f3c967020d1202332b77,,,initialTest_response,21,21,9,253,1119780,,18.67,451,image-keyboard-response,1,1,1,"current target, in next trial",,,,1366
6307f3c967020d1202332b77,ANc5fJ3zgeKQ8sjydoZv,,0.8850267379679143,,,,,2.3,r,True,,,,f,F,3,,,,,768,6307f3c967020d1202332b77,1 (900).jpg,0.0-23.0-1.0-0.25,0,True,,0,False,,False,False,,False,False,,0,0,8,0,,,1,,,,1,f,,1247,68177c12b166747e3416c165,images/1 (900).jpg,,FF,,,0,0,6814acf7a2b0960317ac048d,6307f3c967020d1202332b77,,,finalTest,,0,0,374,2275012,,37.92,1139,image-keyboard-response,,,,final Foil,,,,1366
6307f3c967020d1202332b77,ANpGTATtE5HQeUkRIhSl,,,,True,,,2.3,r,,,,,,T_target,3,,,,,768,6307f3c967020d1202332b77,1 (918).jpg,0.0-8.0-2.0-0.0,0,True,True,0,,True,True,False,True,True,True,4,4,5,1,0,,,1,,,,,,,,68177c12b166747e3416c165,images/1 (918).jpg,Dn+1,Dn,,1,1,0,6814acf7a2b0960317ac048d,6307f3c967020d1202332b77,,,initial_study,23,23,16,16,703236,,11.73,235,image-keyboard-response,1,1,1,"current target, in next trial",,,,1366
6307f3c967020d1202332b77,AUkLoPpSXXLH7njNcgis,,0.7407407407407407,,False,,,2.3,r,True,True,,,j,T_target,3,,,,,768,6307f3c967020d1202332b77,1 (1423).jpg,0.0-7.0-10.0-0.26,0,True,True,0,False,True,True,False,True,True,False,3,3,False,,0,,,1,,,,1,j,,1123,68177c12b166747e3416c165,images/1 (1423).jpg,B,B,,25,25,0,6814acf7a2b0960317ac048d,6307f3c967020d1202332b77,,,initialTest_response,27,27,0,66,692169,,11.54,229,image-keyboard-response,1,1,0,"current target, not in next trial",,,,1366
6307f3c967020d1202332b77,AW6mQBmZfPFvh8NNGdHj,,0.6842105263157895,,True,,,2.3,r,False,,False,,f,T_foil,3,,,,,768,6307f3c967020d1202332b77,1 (917).jpg,0.0-14.0-10.0-0.18,0,True,False,0,False,False,True,False,True,False,False,10,9,0,,0,,,2,,,,0,j,,1196,68177c12b166747e3416c165,images/1 (917).jpg,Cn,Cn,,0,7,0,6814acf7a2b0960317ac048d,6307f3c967020d1202332b77,,,initialTest_response,19,0,0,345,1714588,,28.58,753,image-keyboard-response,1,0,1,"studied only, in next trial, from last trial",,,,1366
6307f3c967020d1202332b77,AXNeBev8edYE7bzHMJFY,,0.8853333333333332,,,,,2.3,r,True,,,,f,F,3,,,,,768,6307f3c967020d1202332b77,1 (1274).jpg,0.0-23.0-1.0-0.26,0,True,,0,False,,False,False,,False,False,,0,0,8,2,,,1,,,,1,f,,1502,68177c12b166747e3416c165,images/1 (1274).jpg,,FF,,,0,0,6814acf7a2b0960317ac048d,6307f3c967020d1202332b77,,,finalTest,,0,0,375,2276635,,37.95,1140,image-keyboard-response,,,,final Foil,,,,1366
6307f3c967020d1202332b77,Ab9FYhjU1Tl8FdmOk8ZR,,0.8807947019867548,,,,,2.3,r,True,,,,f,F,3,,,,,768,6307f3c967020d1202332b77,1 (2378).jpg,0.0-25.0-1.0-0.8,0,True,,0,False,,False,False,,False,False,,0,0,10,8,,,1,,,,1,f,,1282,68177c12b166747e3416c165,images/1 (2378).jpg,,FF,,,0,0,6814acf7a2b0960317ac048d,6307f3c967020d1202332b77,,,finalTest,,0,0,453,2392616,,39.88,1218,image-keyboard-response,,,,final Foil,,,,1366
6307f3c967020d1202332b77,AbSNW2CC1qcBCC7wjDUE,,0.8,,True,,,2.3,r,False,,False,,f,T_foil,3,,,,,768,6307f3c967020d1202332b77,1 (1744).jpg,0.0-6.0-10.0-0.24,0,True,False,0,False,False,True,False,True,False,True,2,1,2,,0,,,2,,,,0,j,,1257,68177c12b166747e3416c165,images/1 (1744).jpg,Cn,Cn,,0,21,0,6814acf7a2b0960317ac048d,6307f3c967020d1202332b77,,,initialTest_response,25,0,25,243,544851,,9.09,151,image-keyboard-response,1,0,1,"studied only, in next trial, from last trial",,,,1366
6307f3c967020d1202332b77,AdAhANhf44Kj91esMPhz,,0.8825622775800712,,,,,2.3,r,True,False,False,,j,T_target,3,,,,,768,6307f3c967020d1202332b77,1 (748).jpg,0.0-21.0-1.0-0.28,0,True,,0,True,,True,False,,True,True,,5,6,6,0,,,,,,,1,j,,1032,68177c12b166747e3416c165,images/1 (748).jpg,,Dn,,,4,0,6814acf7a2b0960317ac048d,6307f3c967020d1202332b77,,,finalTest,,12,11,281,2150395,,35.85,1046,image-keyboard-response,,,,"current target, in next trial",,,,1366
6307f3c967020d1202332b77,Adg6AJyk99PhsQoNFPBg,,,,False,,,2.3,r,,,,,,T_target,3,,,,,768,6307f3c967020d1202332b77,1 (291).jpg,0.0-11.0-2.0-0.5,0,True,True,0,,True,True,False,True,True,False,7,7,0,9,0,,,1,,,,,,,,68177c12b166747e3416c165,images/1 (291).jpg,B,B,,6,6,0,6814acf7a2b0960317ac048d,6307f3c967020d1202332b77,,,initial_study,11,11,0,400,1151507,,19.20,468,image-keyboard-response,1,1,0,"current target, not in next trial",,,,1366
6307f3c967020d1202332b77,AiaFAp7lozoXVwo67Iop,,,,False,,,2.3,r,,,,,,T_nontarget,3,,,,,768,6307f3c967020d1202332b77,1 (1922).jpg,0.0-14.0-2.0-0.23,0,True,True,0,,True,True,False,False,False,False,10,10,0,9,0,,,1,,,,,,,,68177c12b166747e3416c165,images/1 (1922).jpg,A,A,,24,24,0,6814acf7a2b0960317ac048d,6307f3c967020d1202332b77,,,initial_study,0,0,0,437,1639145,,27.33,714,image-keyboard-response,1,0,0,"studied only, not in trial",,,,1366
6307f3c967020d1202332b77,AimLvH2ZMe4rF75xGxk5,,0.9098360655737705,,,,,2.3,r,True,,,,j,T_target,3,,,,,768,6307f3c967020d1202332b77,1 (1289).jpg,0.0-18.0-1.0-0.13,0,True,,0,True,,True,False,,True,False,,10,0,3,0,,,,,,,1,j,,745,68177c12b166747e3416c165,images/1 (1289).jpg,,B,,,7,0,6814acf7a2b0960317ac048d,6307f3c967020d1202332b77,,,finalTest,,29,0,122,1951172,,32.53,887,image-keyboard-response,,,,"current target, not in next trial",,,,1366
6307f3c967020d1202332b77,AmTVjYc98WlT0Jh1fBpH,,,,False,,,2.3,r,,,,,,T_nontarget,3,,,,,768,6307f3c967020d1202332b77,1 (987).jpg,0.0-9.0-2.0-0.29,0,True,True,0,,True,True,False,False,False,False,5,5,0,3,0,,,1,,,,,,,,68177c12b166747e3416c165,images/1 (987).jpg,A,A,,30,30,0,6814acf7a2b0960317ac048d,6307f3c967020d1202332b77,,,initial_study,0,0,0,153,905787,,15.10,340,image-keyboard-response,1,0,0,"studied only, not in trial",,,,1366
6307f3c967020d1202332b77,Ao6zCwyJ8zRcj5II44sn,,,,True,,,2.3,r,,,,,,T_nontarget,3,,,,,768,6307f3c967020d1202332b77,1 (160).jpg,0.0-14.0-2.0-0.5,0,True,True,0,,True,True,False,False,False,False,10,10,0,3,0,,,1,,,,,,,,68177c12b166747e3416c165,images/1 (160).jpg,Cn+1,Cn,,6,6,0,6814acf7a2b0960317ac048d,6307f3c967020d1202332b77,,,initial_study,0,0,0,124,1600996,,26.69,696,image-keyboard-response,1,0,1,"studied only, in next trial",,,,1366
6307f3c967020d1202332b77,Ao9IeGeipfrh8nXDyeof,,0.9,,,,,2.3,r,False,,,,f,F,3,,,,,768,6307f3c967020d1202332b77,1 (593).jpg,0.0-16.0-1.0-0.9,0,True,,0,False,,False,False,,False,False,,0,0,1,10,,,1,,,,0,j,,1260,68177c12b166747e3416c165,images/1 (593).jpg,,FF,,,0,0,6814acf7a2b0960317ac048d,6307f3c967020d1202332b77,,,finalTest,,0,0,10,1827254,,30.46,775,image-keyboard-response,,,,final Foil,,,,1366
6307f3c967020d1202332b77,AohSTq14jWaLC34y6BNy,,0.8850574712643678,,,,,2.3,r,True,,,,j,T_foil,3,,,,,768,6307f3c967020d1202332b77,1 (2243).jpg,0.0-21.0-1.0-0.8,0,True,,0,True,,False,False,,True,False,,9,False,6,9,,,,,,,1,j,,1227,68177c12b166747e3416c165,images/1 (2243).jpg,,Fn,,,0,0,6814acf7a2b0960317ac048d,6307f3c967020d1202332b77,,,finalTest,,3,0,261,2123223,,35.39,1026,image-keyboard-response,,,,"tested only, not in next trial",,,,1366
6307f3c967020d1202332b77,AtwXDc647Srb2BN14X7R,,0.884130982367758,,,,,2.3,r,True,,,,f,F,3,,,,,768,6307f3c967020d1202332b77,1 (2087).jpg,0.0-24.0-1.0-0.0,0,True,,0,False,,False,False,,False,False,,0,0,9,9,,,1,,,,1,f,,2173,68177c12b166747e3416c165,images/1 (2087).jpg,,FF,,,0,0,6814acf7a2b0960317ac048d,6307f3c967020d1202332b77,,,finalTest,,0,0,397,2307189,,38.46,1162,image-keyboard-response,,,,final Foil,,,,1366
6307f3c967020d1202332b77,Avg8Nv80fnAOFZEbs2HP,,,,False,,,2.3,r,,,,,,T_nontarget,3,,,,,768,6307f3c967020d1202332b77,1 (1735).jpg,0.0-14.0-2.0-0.16,0,True,True,0,,True,True,False,False,False,False,10,10,0,10,0,,,1,,,,,,,,68177c12b166747e3416c165,images/1 (1735).jpg,A,A,,17,17,0,6814acf7a2b0960317ac048d,6307f3c967020d1202332b77,,,initial_study,0,0,0,446,1624295,,27.08,707,image-keyboard-response,1,0,0,"studied only, not in trial",,,,1366
6307f3c967020d1202332b77,B1VLxJJhh6vJbJJXLvXF,,0.8260869565217391,,False,,,2.3,r,True,True,,,j,T_target,3,,,,,768,6307f3c967020d1202332b77,1 (2346).jpg,0.0-6.0-10.0-0.22,0,True,True,0,False,True,True,False,True,True,False,2,2,False,,0,,,1,,,,1,j,,946,68177c12b166747e3416c165,images/1 (2346).jpg,B,B,,17,17,0,6814acf7a2b0960317ac048d,6307f3c967020d1202332b77,,,initialTest_response,23,23,0,386,542323,,9.05,149,image-keyboard-response,1,1,0,"current target, not in next trial",,,,1366
6307f3c967020d1202332b77,B2HzXSEoVcyNnHv9quYM,,0.9057971014492754,,,,,2.3,r,True,,,,f,F,3,,,,,768,6307f3c967020d1202332b77,1 (329).jpg,0.0-18.0-1.0-0.29,0,True,,0,False,,False,False,,False,False,,0,0,3,1,,,1,,,,1,f,,1033,68177c12b166747e3416c165,images/1 (329).jpg,,FF,,,0,0,6814acf7a2b0960317ac048d,6307f3c967020d1202332b77,,,finalTest,,0,0,138,1967979,,32.81,903,image-keyboard-response,,,,final Foil,,,,1366
6307f3c967020d1202332b77,B5UnvOVnEfLYxIapQFmK,,,,,,,2.3,r,True,,,49,,,3,,,,,768,6307f3c967020d1202332b77,,0.0-5.0-6.0-0.0-0.0,0,,,0,,,,,,,,,,,,,,,,,,,,{'Q0': '49'},49,5733,68177c12b166747e3416c165,,,,,,,,6814acf7a2b0960317ac048d,6307f3c967020d1202332b77,,,answer_counting,,,,,318988,,5.32,47,survey-text,,,,,,,,1366
6307f3c967020d1202332b77,B5fADK0bUVLr6uDtpxda,,,,,,,2.3,r,True,,,56,,,3,,,,,768,6307f3c967020d1202332b77,,0.0-10.0-6.0-0.0-0.0,0,,,0,,,,,,,,,,,,,,,,,,,,{'Q0': '56'},56,4089,68177c12b166747e3416c165,,,,,,,,6814acf7a2b0960317ac048d,6307f3c967020d1202332b77,,,answer_counting,,,,,1085282,,18.09,427,survey-text,,,,,,,,1366
6307f3c967020d1202332b77,B5uU8YVaCALunoa2qNSI,,0.8854166666666665,,,,,2.3,r,True,,,,f,F,3,,,,,768,6307f3c967020d1202332b77,1 (2089).jpg,0.0-21.0-1.0-0.35,0,True,,0,False,,False,False,,False,False,,0,0,6,0,,,1,,,,1,f,,1276,68177c12b166747e3416c165,images/1 (2089).jpg,,FF,,,0,0,6814acf7a2b0960317ac048d,6307f3c967020d1202332b77,,,finalTest,,0,0,288,2159440,,36.00,1053,image-keyboard-response,,,,final Foil,,,,1366
6307f3c967020d1202332b77,BERt1ElYBOx1c5MOADT6,,,,,,,2.3,r,,,,,,,3,,,,,768,6307f3c967020d1202332b77,,0.0-7.0-5.0-0.3,0,,,0,,,,,,,,3,,,,,,,,,4,,,,,,68177c12b166747e3416c165,6,,,6,,,,6814acf7a2b0960317ac048d,6307f3c967020d1202332b77,,51,digitPresentation,,,,,634683,,10.58,194,html-keyboard-response,,,,,,,,1366
6307f3c967020d1202332b77,BLJsV7FI4XOVLgx0h1xC,,,,False,,,2.3,r,,,,,,T_target,3,,,,,768,6307f3c967020d1202332b77,1 (1665).jpg,0.0-12.0-2.0-0.25,0,True,True,0,,True,True,False,True,True,False,8,8,0,5,0,,,1,,,,,,,,68177c12b166747e3416c165,images/1 (1665).jpg,B,B,,26,26,0,6814acf7a2b0960317ac048d,6307f3c967020d1202332b77,,,initial_study,4,4,0,241,1349442,,22.50,564,image-keyboard-response,1,1,0,"current target, not in next trial",,,,1366
6307f3c967020d1202332b77,BNFDnTvEUJsJfMknhy1k,,0.8947368421052632,,,,,2.3,r,True,,,,f,F,3,,,,,768,6307f3c967020d1202332b77,1 (1050).jpg,0.0-19.0-1.0-0.33,0,True,,0,False,,False,False,,False,False,,0,0,4,0,,,1,,,,1,f,,1255,68177c12b166747e3416c165,images/1 (1050).jpg,,FF,,,0,0,6814acf7a2b0960317ac048d,6307f3c967020d1202332b77,,,finalTest,,0,0,190,2031351,,33.86,955,image-keyboard-response,,,,final Foil,,,,1366
6307f3c967020d1202332b77,BOzNzmGCGAq9RH7QrWAh,,0.8771551724137929,,,,,2.3,r,True,,,,f,F,3,,,,,768,6307f3c967020d1202332b77,1 (1740).jpg,0.0-25.0-1.0-0.19,0,True,,0,False,,False,False,,False,False,,0,0,10,9,,,1,,,,1,f,,1399,68177c12b166747e3416c165,images/1 (1740).jpg,,FF,,,0,0,6814acf7a2b0960317ac048d,6307f3c967020d1202332b77,,,finalTest,,0,0,464,2409848,,40.17,1229,image-keyboard-response,,,,final Foil,,,,1366
6307f3c967020d1202332b77,BUSIokQJnVxtjQ2lb4Ma,,0.75,,False,,,2.3,r,True,True,,,j,T_target,3,,,,,768,6307f3c967020d1202332b77,1 (1665).jpg,0.0-12.0-10.0-0.3,0,True,True,0,False,True,True,False,True,True,False,8,8,False,,0,,,1,,,,1,j,,1176,68177c12b166747e3416c165,images/1 (1665).jpg,B,B,,26,26,0,6814acf7a2b0960317ac048d,6307f3c967020d1202332b77,,,initialTest_response,4,4,0,241,1400464,,23.35,586,image-keyboard-response,1,1,0,"current target, not in next trial",,,,1366
6307f3c967020d1202332b77,BV7mS9EKOzz1UxzA9alc,,0.9054054054054054,,,,,2.3,r,True,True,True,,j,T_target,3,,,,,768,6307f3c967020d1202332b77,1 (53).jpg,0.0-18.0-1.0-0.39,0,True,,0,True,,True,False,,True,True,,7,8,3,0,,,,,,,1,j,,965,68177c12b166747e3416c165,images/1 (53).jpg,,Dn,,,3,0,6814acf7a2b0960317ac048d,6307f3c967020d1202332b77,,,finalTest,,15,19,148,1979742,,33.00,913,image-keyboard-response,,,,"current target, in next trial",,,,1366
6307f3c967020d1202332b77,BWPWnn7X8oeUFItynd2i,,0.8,,False,,,2.3,r,True,True,,,f,T_foil,3,,,,,768,6307f3c967020d1202332b77,1 (2322).jpg,0.0-14.0-10.0-0.4,0,True,True,0,False,False,False,False,True,True,False,10,10,0,5,0,,,1,,,,1,f,,1185,68177c12b166747e3416c165,images/1 (2322).jpg,Fn+1,Fn,,0,0,0,6814acf7a2b0960317ac048d,6307f3c967020d1202332b77,,,initialTest_response,5,5,0,210,1696293,,28.28,739,image-keyboard-response,0,1,0,"tested only, not in next trial",,,,1366
6307f3c967020d1202332b77,BXuEh9imM5XfABlgu285,,,,,,,2.3,r,,,,,,,3,,,,,768,6307f3c967020d1202332b77,,0.0-8.0-3.0-0.0,0,,,0,,,,,,,,,,,,,,,,,,,,,,,68177c12b166747e3416c165,Summing up the digits as they appear,,,,,,,6814acf7a2b0960317ac048d,6307f3c967020d1202332b77,,,prompt,,,,,766752,,12.79,265,html-keyboard-response,,,,,,,,1366
6307f3c967020d1202332b77,BbocR87K320hLbyfoUGP,,0.8913043478260869,,,,,2.3,r,False,,,,j,T_foil,3,,,,,768,6307f3c967020d1202332b77,1 (914).jpg,0.0-19.0-1.0-0.27,0,True,,0,True,,False,False,,True,False,,1,False,4,1,,,,,,,0,f,,1121,68177c12b166747e3416c165,images/1 (914).jpg,,Fn,,,0,0,6814acf7a2b0960317ac048d,6307f3c967020d1202332b77,,,finalTest,,12,0,184,2024066,,33.74,949,image-keyboard-response,,,,"tested only, not in next trial",,,,1366
6307f3c967020d1202332b77,BihCE1cOiBUVsps6KgzE,,0.8992248062015504,,,,,2.3,r,True,,,,f,F,3,,,,,768,6307f3c967020d1202332b77,1 (447).jpg,0.0-18.0-1.0-0.20,0,True,,0,False,,False,False,,False,False,,0,0,3,1,,,1,,,,1,f,,1017,68177c12b166747e3416c165,images/1 (447).jpg,,FF,,,0,0,6814acf7a2b0960317ac048d,6307f3c967020d1202332b77,,,finalTest,,0,0,129,1958544,,32.65,894,image-keyboard-response,,,,final Foil,,,,1366
6307f3c967020d1202332b77,BnTmJUwQsDxmD4uARixY,,,,,,,2.3,r,,,,,,,3,,,,,768,6307f3c967020d1202332b77,,0.0-11.0-5.0-0.4,0,,,0,,,,,,,,7,,,,,,,,,5,,,,,,68177c12b166747e3416c165,4,,,4,,,,6814acf7a2b0960317ac048d,6307f3c967020d1202332b77,,51,digitPresentation,,,,,1219707,,20.34,499,html-keyboard-response,,,,,,,,1366
6307f3c967020d1202332b77,BouyWQ6ehTUqdASMnsa7,,0.8818181818181817,,,,,2.3,r,True,,,,j,T_target,3,,,,,768,6307f3c967020d1202332b77,1 (976).jpg,0.0-24.0-1.0-0.43,0,True,,0,True,,True,False,,True,False,,3,0,9,0,,,,,,,1,j,,1247,68177c12b166747e3416c165,images/1 (976).jpg,,B,,,16,0,6814acf7a2b0960317ac048d,6307f3c967020d1202332b77,,,finalTest,,14,0,440,2369130,,39.49,1205,image-keyboard-response,,,,"current target, not in next trial",,,,1366
